File: Sample Data/Concentration Curve Data/C-COM1/SWV_500Hz STD1 aptmch 081020.DTA
EXPLAIN
TAG	SQUARE_WAVE
TITLE	LABEL	Square Wave Voltammetry	Test Identifier
DATE	LABEL	8/10/2020	Date
TIME	LABEL	12:51:45	Time
NOTES	NOTES	1	Notes...

PSTAT	PSTAT	REF600-24079	Potentiostat
VINIT	QUANT	-3.50000E-001	Initial E (V)
VFINAL	QUANT	-1.50000E-001	Final E (V)
STEPSIZE	QUANT	2.00000E+000	Step Size (mV)
TIMERRES	QUANT	3.33340E-005	&Timer Resolution
FREQUENCY	QUANT	5.00000E+002	Frequency (Hz)
PULSESIZE	QUANT	2.50000E+001	Pulse Size E (mV)
PULSEON	QUANT	2.00000E-003	Pulse &Time (s)
NOISEREJECT	TOGGLE	F	Noise Rejection
AREA	QUANT	2.00000E-002	Sample Area (cm^2)
IMODE	SELECTOR	1	I/E Range Mode
IRANGE	QUANT	1.00000E-002	Max Current (mA)
EQDELAY	IQUANT	10	Equil. Time (s)
IRCOMP	SELECTOR	0	IRComp
PFCOR	QUANT	5.00000E+001	PF Corr. (ohm)
CYCLES	IQUANT	101	C&ycles (#)
ELECTRODETYPE	SELECTOR	0	Electrode Type
STRIPPING	TOGGLE	F	Used for Stripping
POLARITY	TOGGLE	F	Signal Polarity
LINEFREQ	IQUANT	60	Line Frequency (Hz)
INTPERIOD	QUANT	3.3334E-005	Integration Period (s)
SEQUENCER	TOGGLE	TRUE	Run as Sequence
PSTATMODEL	IQUANT	4	Pstat Model
PSTATSECTION	LABEL	REF600-24079	Pstat Section
PSTATSERIALNO	LABEL	24079	Pstat Serial Number
CTRLMODE	IQUANT	1	Control Mode
ELECTROMETER	IQUANT	0	RE=0 or CS=1
IESTAB	IQUANT	2	I/E Stability
CASPEED	IQUANT	6	Control Amp Speed
CONVENTION	IQUANT	1	Current Convention
ICHRANGE	IQUANT	2	Ich Range
ICHRANGEMODE	TOGGLE	F	Ich Auto Range
ICHOFFSETENABLE	TOGGLE	F	Ich Offset Enable
ICHOFFSET	QUANT	0	Ich Offset (V)
ICHFILTER	IQUANT	1	Ich Filter
VCHRANGE	IQUANT	2	Vch Range
VCHRANGEMODE	TOGGLE	F	Vch Auto Range
VCHOFFSETENABLE	TOGGLE	F	Vch Offset Enable
VCHOFFSET	QUANT	0	Vch Offset (V)
VCHFILTER	IQUANT	1	Vch Filter
ACHRANGE	IQUANT	2	Ach Range
ACHOFFSETENABLE	TOGGLE	F	Ach Offset Enable
ACHOFFSET	QUANT	0	Ach Offset (V)
ACHFILTER	IQUANT	1	Ach Filter
IERANGELOWERLIMIT	IQUANT	1	I/E Range Lower Limit
IERANGEMODE	TOGGLE	F	I/E AutoRange
IERANGE	IQUANT	7	I/E Range
POSFEEDENABLE	TOGGLE	F	Positive Feedback IR Comp
POSFEEDRESISTANCE	QUANT	0	Positive Feedback Resistance (ohm)
ACHSELECT	IQUANT	0	Ach Select
SENSECABLEID	IQUANT	13	Sense Cable ID
PWRCABLEID	IQUANT	13	Power Cable ID
DCCALDATE	LABEL	6/30/2020	DC Calibration Date
ACCALDATE	LABEL	6/30/2020	AC Calibration Date
THERMOSELECT	IQUANT	1	Thermo Select
FRAMEWORKVERSION	LABEL	7.8.2	Framework Version
INSTRUMENTVERSION	LABEL	4.40	Instrument Version
CURVE	TABLE	101
	Pt	T	Vfwd	Vrev	Vstep	Ifwd	Irev	Idif	Sig	Ach	IERange	Over	Temp
	#	s	V	V	V	A	A	A	V	V	#	bits	deg C
	0	0.002	-3.26324E-001	-3.65474E-001	-3.45899E-001	7.22965E-008	-1.11282E-005	1.12005E-005	-3.75000E-001	2.82706E-004	7	..........a	-327.68
	1	0.004	-3.40908E-001	-3.60707E-001	-3.50807E-001	8.19357E-006	-6.99717E-006	1.51907E-005	-3.73000E-001	3.24373E-004	7	..........a	-327.68
	2	0.006	-3.35874E-001	-3.58508E-001	-3.47191E-001	7.98271E-006	-7.59125E-006	1.55740E-005	-3.71000E-001	3.16039E-004	7	..........a	-327.68
	3	0.008	-3.34157E-001	-3.56508E-001	-3.45333E-001	7.91787E-006	-7.49774E-006	1.54156E-005	-3.69000E-001	3.07706E-004	7	..........a	-327.68
	4	0.01	-3.32191E-001	-3.54566E-001	-3.43378E-001	7.95754E-006	-7.48973E-006	1.54473E-005	-3.67000E-001	2.57706E-004	7	..........a	-327.68
	5	0.012	-3.30291E-001	-3.52566E-001	-3.41428E-001	7.96587E-006	-7.48390E-006	1.54498E-005	-3.65000E-001	3.07706E-004	7	..........a	-327.68
	6	0.014	-3.28224E-001	-3.50558E-001	-3.39391E-001	7.97154E-006	-7.47207E-006	1.54436E-005	-3.63000E-001	3.24373E-004	7	..........a	-327.68
	7	0.016	-3.26241E-001	-3.48591E-001	-3.37416E-001	7.97887E-006	-7.46573E-006	1.54446E-005	-3.61000E-001	2.91039E-004	7	..........a	-327.68
	8	0.018	-3.24224E-001	-3.46507E-001	-3.35366E-001	7.98371E-006	-7.46173E-006	1.54454E-005	-3.59000E-001	3.24373E-004	7	..........a	-327.68
	9	0.02	-3.22191E-001	-3.44499E-001	-3.33345E-001	7.99104E-006	-7.45790E-006	1.54489E-005	-3.57000E-001	3.07706E-004	7	..........a	-327.68
	10	0.022	-3.20241E-001	-3.42541E-001	-3.31391E-001	7.98821E-006	-7.45773E-006	1.54459E-005	-3.55000E-001	3.07706E-004	7	..........a	-327.68
	11	0.024	-3.18233E-001	-3.40524E-001	-3.29378E-001	7.99288E-006	-7.44923E-006	1.54421E-005	-3.53000E-001	2.91039E-004	7	..........a	-327.68
	12	0.026	-3.16157E-001	-3.38474E-001	-3.27316E-001	7.99521E-006	-7.44873E-006	1.54439E-005	-3.51000E-001	3.16039E-004	7	..........a	-327.68
	13	0.028	-3.14232E-001	-3.36533E-001	-3.25383E-001	7.99838E-006	-7.44523E-006	1.54436E-005	-3.49000E-001	2.82706E-004	7	..........a	-327.68
	14	0.03	-3.12141E-001	-3.34482E-001	-3.23312E-001	8.00038E-006	-7.44006E-006	1.54404E-005	-3.47000E-001	3.07706E-004	7	..........a	-327.68
	15	0.032	-3.10107E-001	-3.32458E-001	-3.21283E-001	8.00388E-006	-7.43789E-006	1.54418E-005	-3.45000E-001	3.16039E-004	7	..........a	-327.68
	16	0.034	-3.08241E-001	-3.30557E-001	-3.19399E-001	8.00621E-006	-7.43523E-006	1.54414E-005	-3.43000E-001	3.24373E-004	7	..........a	-327.68
	17	0.036	-3.06191E-001	-3.28574E-001	-3.17383E-001	8.00238E-006	-7.43289E-006	1.54353E-005	-3.41000E-001	3.24373E-004	7	..........a	-327.68
	18	0.038	-3.04241E-001	-3.26458E-001	-3.15349E-001	8.00354E-006	-7.43323E-006	1.54368E-005	-3.39000E-001	2.66039E-004	7	..........a	-327.68
	19	0.04	-3.02207E-001	-3.24516E-001	-3.13362E-001	8.01121E-006	-7.42873E-006	1.54399E-005	-3.37000E-001	2.99373E-004	7	..........a	-327.68
	20	0.042	-3.00224E-001	-3.22558E-001	-3.11391E-001	8.00721E-006	-7.42873E-006	1.54359E-005	-3.35000E-001	2.91039E-004	7	..........a	-327.68
	21	0.044	-2.98274E-001	-3.20499E-001	-3.09387E-001	8.01171E-006	-7.42773E-006	1.54394E-005	-3.33000E-001	2.57706E-004	7	..........a	-327.68
	22	0.046	-2.96191E-001	-3.18532E-001	-3.07362E-001	8.01371E-006	-7.42222E-006	1.54359E-005	-3.31000E-001	2.74373E-004	7	..........a	-327.68
	23	0.048	-2.94191E-001	-3.16516E-001	-3.05353E-001	8.01438E-006	-7.42373E-006	1.54381E-005	-3.29000E-001	3.57706E-004	7	..........a	-327.68
	24	0.05	-2.92141E-001	-3.14524E-001	-3.03333E-001	8.01788E-006	-7.41989E-006	1.54378E-005	-3.27000E-001	3.24373E-004	7	..........a	-327.68
	25	0.052	-2.90199E-001	-3.12533E-001	-3.01366E-001	8.01505E-006	-7.41889E-006	1.54339E-005	-3.25000E-001	3.16039E-004	7	..........a	-327.68
	26	0.054	-2.88191E-001	-3.10533E-001	-2.99362E-001	8.02288E-006	-7.41639E-006	1.54393E-005	-3.23000E-001	2.91039E-004	7	..........a	-327.68
	27	0.056	-2.86174E-001	-3.08449E-001	-2.97312E-001	8.02038E-006	-7.41289E-006	1.54333E-005	-3.21000E-001	3.16039E-004	7	..........a	-327.68
	28	0.058	-2.84207E-001	-3.06499E-001	-2.95353E-001	8.02055E-006	-7.41306E-006	1.54336E-005	-3.19000E-001	3.41039E-004	7	..........a	-327.68
	29	0.06	-2.82191E-001	-3.04532E-001	-2.93362E-001	8.02038E-006	-7.41106E-006	1.54314E-005	-3.17000E-001	3.24373E-004	7	..........a	-327.68
	30	0.062	-2.80208E-001	-3.02574E-001	-2.91391E-001	8.02055E-006	-7.40506E-006	1.54256E-005	-3.15000E-001	2.91039E-004	7	..........a	-327.68
	31	0.064	-2.78158E-001	-3.00532E-001	-2.89345E-001	8.02655E-006	-7.40789E-006	1.54344E-005	-3.13000E-001	3.66039E-004	7	..........a	-327.68
	32	0.066	-2.76224E-001	-2.98508E-001	-2.87366E-001	8.02571E-006	-7.40189E-006	1.54276E-005	-3.11000E-001	3.07706E-004	7	..........a	-327.68
	33	0.068	-2.74174E-001	-2.96566E-001	-2.85370E-001	8.02821E-006	-7.39905E-006	1.54273E-005	-3.09000E-001	3.32706E-004	7	..........a	-327.68
	34	0.07	-2.72157E-001	-2.94591E-001	-2.83374E-001	8.02571E-006	-7.39956E-006	1.54253E-005	-3.07000E-001	2.66039E-004	7	..........a	-327.68
	35	0.072	-2.70224E-001	-2.92499E-001	-2.81362E-001	8.02921E-006	-7.39706E-006	1.54263E-005	-3.05000E-001	2.74373E-004	7	..........a	-327.68
	36	0.074	-2.68174E-001	-2.90507E-001	-2.79341E-001	8.02888E-006	-7.39339E-006	1.54223E-005	-3.03000E-001	2.99373E-004	7	..........a	-327.68
	37	0.076	-2.66199E-001	-2.88524E-001	-2.77362E-001	8.03405E-006	-7.39405E-006	1.54281E-005	-3.01000E-001	3.16039E-004	7	..........a	-327.68
	38	0.078	-2.64174E-001	-2.86483E-001	-2.75328E-001	8.02971E-006	-7.39289E-006	1.54226E-005	-2.99000E-001	3.49373E-004	7	..........a	-327.68
	39	0.08	-2.62208E-001	-2.84549E-001	-2.73378E-001	8.03872E-006	-7.38672E-006	1.54254E-005	-2.97000E-001	3.57706E-004	7	..........a	-327.68
	40	0.082	-2.60208E-001	-2.82541E-001	-2.71374E-001	8.03588E-006	-7.38555E-006	1.54214E-005	-2.95000E-001	3.16039E-004	7	..........a	-327.68
	41	0.084	-2.58258E-001	-2.80449E-001	-2.69353E-001	8.03688E-006	-7.38255E-006	1.54194E-005	-2.93000E-001	3.41039E-004	7	..........a	-327.68
	42	0.086	-2.56258E-001	-2.78549E-001	-2.67403E-001	8.04122E-006	-7.38389E-006	1.54251E-005	-2.91000E-001	3.41039E-004	7	..........a	-327.68
	43	0.088	-2.54258E-001	-2.76541E-001	-2.65399E-001	8.04088E-006	-7.38022E-006	1.54211E-005	-2.89000E-001	3.16039E-004	7	..........a	-327.68
	44	0.09	-2.52224E-001	-2.74583E-001	-2.63403E-001	8.04188E-006	-7.37755E-006	1.54194E-005	-2.87000E-001	3.07706E-004	7	..........a	-327.68
	45	0.092	-2.50241E-001	-2.72541E-001	-2.61391E-001	8.04038E-006	-7.37755E-006	1.54179E-005	-2.85000E-001	2.24373E-004	7	..........a	-327.68
	46	0.094	-2.48208E-001	-2.70533E-001	-2.59370E-001	8.03771E-006	-7.37289E-006	1.54106E-005	-2.83000E-001	3.07706E-004	7	..........a	-327.68
	47	0.096	-2.46191E-001	-2.68533E-001	-2.57362E-001	8.04538E-006	-7.37455E-006	1.54199E-005	-2.81000E-001	2.57706E-004	7	..........a	-327.68
	48	0.098	-2.44183E-001	-2.66457E-001	-2.55320E-001	8.04272E-006	-7.36738E-006	1.54101E-005	-2.79000E-001	2.91039E-004	7	..........a	-327.68
	49	0.1	-2.42241E-001	-2.64541E-001	-2.53391E-001	8.04422E-006	-7.37138E-006	1.54156E-005	-2.77000E-001	3.07706E-004	7	..........a	-327.68
	50	0.102	-2.40174E-001	-2.62558E-001	-2.51366E-001	8.04805E-006	-7.36355E-006	1.54116E-005	-2.75000E-001	3.57706E-004	7	..........a	-327.68
	51	0.104	-2.38241E-001	-2.60491E-001	-2.49366E-001	8.05022E-006	-7.36088E-006	1.54111E-005	-2.73000E-001	3.41039E-004	7	..........a	-327.68
	52	0.106	-2.36074E-001	-2.58474E-001	-2.47274E-001	8.04805E-006	-7.36655E-006	1.54146E-005	-2.71000E-001	2.49373E-004	7	..........a	-327.68
	53	0.108	-2.34158E-001	-2.56508E-001	-2.45333E-001	8.04988E-006	-7.36172E-006	1.54116E-005	-2.69000E-001	3.07706E-004	7	..........a	-327.68
	54	0.11	-2.32241E-001	-2.54624E-001	-2.43433E-001	8.04505E-006	-7.35955E-006	1.54046E-005	-2.67000E-001	2.99373E-004	7	..........a	-327.68
	55	0.112	-2.30158E-001	-2.52516E-001	-2.41337E-001	8.05122E-006	-7.35888E-006	1.54101E-005	-2.65000E-001	2.91039E-004	7	..........a	-327.68
	56	0.114	-2.28191E-001	-2.50599E-001	-2.39395E-001	8.04922E-006	-7.35955E-006	1.54088E-005	-2.63000E-001	2.57706E-004	7	..........a	-327.68
	57	0.116	-2.26174E-001	-2.48516E-001	-2.37345E-001	8.05122E-006	-7.36038E-006	1.54116E-005	-2.61000E-001	3.41039E-004	7	..........a	-327.68
	58	0.118	-2.24208E-001	-2.46633E-001	-2.35420E-001	8.05405E-006	-7.35638E-006	1.54104E-005	-2.59000E-001	3.74373E-004	7	..........a	-327.68
	59	0.12	-2.22208E-001	-2.44583E-001	-2.33395E-001	8.04705E-006	-7.35388E-006	1.54009E-005	-2.57000E-001	2.91039E-004	7	..........a	-327.68
	60	0.122	-2.20174E-001	-2.42574E-001	-2.31374E-001	8.05272E-006	-7.35855E-006	1.54113E-005	-2.55000E-001	2.57706E-004	7	..........a	-327.68
	61	0.124	-2.18174E-001	-2.40458E-001	-2.29316E-001	8.04822E-006	-7.35172E-006	1.53999E-005	-2.53000E-001	2.41039E-004	7	..........a	-327.68
	62	0.126	-2.16091E-001	-2.38491E-001	-2.27291E-001	8.04922E-006	-7.35672E-006	1.54059E-005	-2.51000E-001	3.41039E-004	7	..........a	-327.68
	63	0.128	-2.14149E-001	-2.36566E-001	-2.25358E-001	8.05188E-006	-7.35505E-006	1.54069E-005	-2.49000E-001	3.41039E-004	7	..........a	-327.68
	64	0.13	-2.12133E-001	-2.34466E-001	-2.23299E-001	8.05222E-006	-7.35355E-006	1.54058E-005	-2.47000E-001	3.49373E-004	7	..........a	-327.68
	65	0.132	-2.10158E-001	-2.32549E-001	-2.21353E-001	8.04905E-006	-7.35472E-006	1.54038E-005	-2.45000E-001	2.82706E-004	7	..........a	-327.68
	66	0.134	-2.08141E-001	-2.30599E-001	-2.19370E-001	8.05105E-006	-7.35338E-006	1.54044E-005	-2.43000E-001	3.07706E-004	7	..........a	-327.68
	67	0.136	-2.06158E-001	-2.28491E-001	-2.17324E-001	8.04888E-006	-7.35472E-006	1.54036E-005	-2.41000E-001	3.57706E-004	7	..........a	-327.68
	68	0.138	-2.04208E-001	-2.26608E-001	-2.15408E-001	8.05055E-006	-7.35355E-006	1.54041E-005	-2.39000E-001	3.41039E-004	7	..........a	-327.68
	69	0.14	-2.02174E-001	-2.24541E-001	-2.13358E-001	8.05038E-006	-7.35038E-006	1.54008E-005	-2.37000E-001	3.49373E-004	7	..........a	-327.68
	70	0.142	-2.00091E-001	-2.22558E-001	-2.11324E-001	8.05005E-006	-7.35455E-006	1.54046E-005	-2.35000E-001	3.07706E-004	7	..........a	-327.68
	71	0.144	-1.98158E-001	-2.20541E-001	-2.09349E-001	8.05122E-006	-7.36122E-006	1.54124E-005	-2.33000E-001	3.16039E-004	7	..........a	-327.68
	72	0.146	-1.96224E-001	-2.18591E-001	-2.07408E-001	8.04755E-006	-7.35138E-006	1.53989E-005	-2.31000E-001	2.74373E-004	7	..........a	-327.68
	73	0.148	-1.94174E-001	-2.16524E-001	-2.05349E-001	8.05205E-006	-7.35705E-006	1.54091E-005	-2.29000E-001	3.41039E-004	7	..........a	-327.68
	74	0.15	-1.92224E-001	-2.14508E-001	-2.03366E-001	8.04922E-006	-7.35405E-006	1.54033E-005	-2.27000E-001	2.74373E-004	7	..........a	-327.68
	75	0.152	-1.90174E-001	-2.12558E-001	-2.01366E-001	8.04855E-006	-7.35505E-006	1.54036E-005	-2.25000E-001	3.32706E-004	7	..........a	-327.68
	76	0.154	-1.88124E-001	-2.10508E-001	-1.99316E-001	8.05255E-006	-7.35438E-006	1.54069E-005	-2.23000E-001	3.41039E-004	7	..........a	-327.68
	77	0.156	-1.86108E-001	-2.08624E-001	-1.97366E-001	8.05122E-006	-7.35772E-006	1.54089E-005	-2.21000E-001	3.16039E-004	7	..........a	-327.68
	78	0.158	-1.84174E-001	-2.06524E-001	-1.95349E-001	8.04905E-006	-7.36138E-006	1.54104E-005	-2.19000E-001	2.91039E-004	7	..........a	-327.68
	79	0.16	-1.82183E-001	-2.04541E-001	-1.93362E-001	8.04772E-006	-7.35805E-006	1.54058E-005	-2.17000E-001	3.16039E-004	7	..........a	-327.68
	80	0.162	-1.80141E-001	-2.02633E-001	-1.91387E-001	8.05255E-006	-7.35438E-006	1.54069E-005	-2.15000E-001	3.24373E-004	7	..........a	-327.68
	81	0.164	-1.78174E-001	-2.00616E-001	-1.89395E-001	8.05005E-006	-7.35905E-006	1.54091E-005	-2.13000E-001	3.74373E-004	7	..........a	-327.68
	82	0.166	-1.76158E-001	-1.98583E-001	-1.87370E-001	8.05255E-006	-7.35438E-006	1.54069E-005	-2.11000E-001	2.99373E-004	7	..........a	-327.68
	83	0.168	-1.74108E-001	-1.96641E-001	-1.85374E-001	8.04855E-006	-7.35905E-006	1.54076E-005	-2.09000E-001	3.16039E-004	7	..........a	-327.68
	84	0.17	-1.72183E-001	-1.94649E-001	-1.83416E-001	8.04722E-006	-7.35688E-006	1.54041E-005	-2.07000E-001	3.32706E-004	7	..........a	-327.68
	85	0.172	-1.70158E-001	-1.92524E-001	-1.81341E-001	8.05105E-006	-7.35705E-006	1.54081E-005	-2.05000E-001	3.16039E-004	7	..........a	-327.68
	86	0.174	-1.68141E-001	-1.90616E-001	-1.79378E-001	8.05422E-006	-7.35605E-006	1.54103E-005	-2.03000E-001	3.07706E-004	7	..........a	-327.68
	87	0.176	-1.66216E-001	-1.88549E-001	-1.77383E-001	8.05288E-006	-7.35572E-006	1.54086E-005	-2.01000E-001	2.99373E-004	7	..........a	-327.68
	88	0.178	-1.64108E-001	-1.86549E-001	-1.75328E-001	8.05022E-006	-7.35572E-006	1.54059E-005	-1.99000E-001	3.57706E-004	7	..........a	-327.68
	89	0.18	-1.62108E-001	-1.84558E-001	-1.73333E-001	8.05338E-006	-7.36122E-006	1.54146E-005	-1.97000E-001	3.32706E-004	7	..........a	-327.68
	90	0.182	-1.60091E-001	-1.82616E-001	-1.71353E-001	8.05138E-006	-7.35655E-006	1.54079E-005	-1.95000E-001	3.16039E-004	7	..........a	-327.68
	91	0.184	-1.58166E-001	-1.80608E-001	-1.69387E-001	8.05372E-006	-7.35655E-006	1.54103E-005	-1.93000E-001	2.49373E-004	7	..........a	-327.68
	92	0.186	-1.56124E-001	-1.78591E-001	-1.67358E-001	8.05172E-006	-7.35972E-006	1.54114E-005	-1.91000E-001	3.07706E-004	7	..........a	-327.68
	93	0.188	-1.54124E-001	-1.76558E-001	-1.65341E-001	8.05538E-006	-7.35488E-006	1.54103E-005	-1.89000E-001	2.66039E-004	7	..........a	-327.68
	94	0.19	-1.52158E-001	-1.74591E-001	-1.63374E-001	8.05438E-006	-7.35572E-006	1.54101E-005	-1.87000E-001	3.24373E-004	7	..........a	-327.68
	95	0.192	-1.50191E-001	-1.72558E-001	-1.61374E-001	8.05338E-006	-7.35688E-006	1.54103E-005	-1.85000E-001	2.82706E-004	7	..........a	-327.68
	96	0.194	-1.48141E-001	-1.70591E-001	-1.59366E-001	8.05538E-006	-7.35805E-006	1.54134E-005	-1.83000E-001	3.16039E-004	7	..........a	-327.68
	97	0.196	-1.46141E-001	-1.68599E-001	-1.57370E-001	8.05238E-006	-7.35738E-006	1.54098E-005	-1.81000E-001	3.32706E-004	7	..........a	-327.68
	98	0.198	-1.44149E-001	-1.66549E-001	-1.55349E-001	8.05588E-006	-7.35522E-006	1.54111E-005	-1.79000E-001	2.91039E-004	7	..........a	-327.68
	99	0.2	-1.42141E-001	-1.64616E-001	-1.53378E-001	8.05405E-006	-7.35772E-006	1.54118E-005	-1.77000E-001	3.16039E-004	7	..........a	-327.68
	100	0.202	-1.40099E-001	-1.62458E-001	-1.51278E-001	8.05838E-006	-7.35522E-006	1.54136E-005	-1.75000E-001	3.32706E-004	7	..........a	-327.68