File: Sample Data/Concentration Curve Data/C-COM1/SWV_10Hz STD1 50  fgml 081020_#10.DTA
EXPLAIN
TAG	SQUARE_WAVE
TITLE	LABEL	Square Wave Voltammetry	Test Identifier
DATE	LABEL	8/10/2020	Date
TIME	LABEL	19:01:51	Time
NOTES	NOTES	1	Notes...
	 STD1 50  fg/mL 08102
PSTAT	PSTAT	REF600-24079	Potentiostat
VINIT	QUANT	-3.50000E-001	Initial E (V)
VFINAL	QUANT	-1.50000E-001	Final E (V)
STEPSIZE	QUANT	2.00000E+000	Step Size (mV)
TIMERRES	QUANT	3.33340E-005	&Timer Resolution
FREQUENCY	QUANT	1.00000E+001	Frequency (Hz)
PULSESIZE	QUANT	2.50000E+001	Pulse Size E (mV)
PULSEON	QUANT	1.00000E-001	Pulse &Time (s)
NOISEREJECT	TOGGLE	F	Noise Rejection
AREA	QUANT	2.00000E-002	Sample Area (cm^2)
IMODE	SELECTOR	1	I/E Range Mode
IRANGE	QUANT	1.00000E-003	Max Current (mA)
EQDELAY	IQUANT	10	Equil. Time (s)
IRCOMP	SELECTOR	0	IRComp
PFCOR	QUANT	5.00000E+001	PF Corr. (ohm)
CYCLES	IQUANT	101	C&ycles (#)
ELECTRODETYPE	SELECTOR	0	Electrode Type
STRIPPING	TOGGLE	F	Used for Stripping
POLARITY	TOGGLE	F	Signal Polarity
LINEFREQ	IQUANT	60	Line Frequency (Hz)
INTPERIOD	QUANT	3.3334E-005	Integration Period (s)
SEQUENCER	TOGGLE	TRUE	Run as Sequence
PSTATMODEL	IQUANT	4	Pstat Model
PSTATSECTION	LABEL	REF600-24079	Pstat Section
PSTATSERIALNO	LABEL	24079	Pstat Serial Number
CTRLMODE	IQUANT	1	Control Mode
ELECTROMETER	IQUANT	0	RE=0 or CS=1
IESTAB	IQUANT	2	I/E Stability
CASPEED	IQUANT	6	Control Amp Speed
CONVENTION	IQUANT	1	Current Convention
ICHRANGE	IQUANT	2	Ich Range
ICHRANGEMODE	TOGGLE	F	Ich Auto Range
ICHOFFSETENABLE	TOGGLE	F	Ich Offset Enable
ICHOFFSET	QUANT	0	Ich Offset (V)
ICHFILTER	IQUANT	2	Ich Filter
VCHRANGE	IQUANT	2	Vch Range
VCHRANGEMODE	TOGGLE	F	Vch Auto Range
VCHOFFSETENABLE	TOGGLE	F	Vch Offset Enable
VCHOFFSET	QUANT	0	Vch Offset (V)
VCHFILTER	IQUANT	2	Vch Filter
ACHRANGE	IQUANT	2	Ach Range
ACHOFFSETENABLE	TOGGLE	F	Ach Offset Enable
ACHOFFSET	QUANT	0	Ach Offset (V)
ACHFILTER	IQUANT	1	Ach Filter
IERANGELOWERLIMIT	IQUANT	1	I/E Range Lower Limit
IERANGEMODE	TOGGLE	F	I/E AutoRange
IERANGE	IQUANT	6	I/E Range
POSFEEDENABLE	TOGGLE	F	Positive Feedback IR Comp
POSFEEDRESISTANCE	QUANT	0	Positive Feedback Resistance (ohm)
ACHSELECT	IQUANT	0	Ach Select
SENSECABLEID	IQUANT	13	Sense Cable ID
PWRCABLEID	IQUANT	13	Power Cable ID
DCCALDATE	LABEL	6/30/2020	DC Calibration Date
ACCALDATE	LABEL	6/30/2020	AC Calibration Date
THERMOSELECT	IQUANT	1	Thermo Select
FRAMEWORKVERSION	LABEL	7.8.2	Framework Version
INSTRUMENTVERSION	LABEL	4.40	Instrument Version
CURVE	TABLE	101
	Pt	T	Vfwd	Vrev	Vstep	Ifwd	Irev	Idif	Sig	Ach	IERange	Over	Temp
	#	s	V	V	V	A	A	A	V	V	#	bits	deg C
	0	0.1	-3.25014E-001	-3.74951E-001	-3.49982E-001	-1.50136E-007	-2.90163E-007	1.40027E-007	-3.75000E-001	4.05206E-004	6	..........a	-327.68
	1	0.2	-3.22946E-001	-3.72979E-001	-3.47963E-001	-1.35349E-007	-2.80000E-007	1.44651E-007	-3.73000E-001	4.01206E-004	6	..........a	-327.68
	2	0.3	-3.20973E-001	-3.70851E-001	-3.45912E-001	-1.30212E-007	-2.72999E-007	1.42788E-007	-3.71000E-001	3.99206E-004	6	..........a	-327.68
	3	0.4	-3.18889E-001	-3.69098E-001	-3.43993E-001	-1.25805E-007	-2.66585E-007	1.40779E-007	-3.69000E-001	4.11373E-004	6	..........a	-327.68
	4	0.5	-3.17068E-001	-3.66887E-001	-3.41977E-001	-1.22181E-007	-2.60614E-007	1.38433E-007	-3.67000E-001	4.11706E-004	6	..........a	-327.68
	5	0.6	-3.14924E-001	-3.65042E-001	-3.39983E-001	-1.18510E-007	-2.54591E-007	1.36081E-007	-3.65000E-001	4.09373E-004	6	..........a	-327.68
	6	0.7	-3.13022E-001	-3.62876E-001	-3.37949E-001	-1.15015E-007	-2.49115E-007	1.34100E-007	-3.63000E-001	4.17539E-004	6	..........a	-327.68
	7	0.8	-3.10895E-001	-3.61054E-001	-3.35974E-001	-1.11933E-007	-2.43580E-007	1.31647E-007	-3.61000E-001	4.14706E-004	6	..........a	-327.68
	8	0.9	-3.08989E-001	-3.58946E-001	-3.33968E-001	-1.08611E-007	-2.38154E-007	1.29544E-007	-3.59000E-001	4.13039E-004	6	..........a	-327.68
	9	1	-3.06906E-001	-3.57040E-001	-3.31973E-001	-1.05444E-007	-2.33179E-007	1.27735E-007	-3.57000E-001	4.20039E-004	6	..........a	-327.68
	10	1.1	-3.05045E-001	-3.54924E-001	-3.29985E-001	-1.02482E-007	-2.27975E-007	1.25493E-007	-3.55000E-001	4.14039E-004	6	..........a	-327.68
	11	1.2	-3.02963E-001	-3.53050E-001	-3.28006E-001	-9.93084E-008	-2.23051E-007	1.23743E-007	-3.53000E-001	4.06539E-004	6	..........a	-327.68
	12	1.3	-3.01042E-001	-3.50931E-001	-3.25986E-001	-9.65094E-008	-2.18298E-007	1.21789E-007	-3.51000E-001	3.97039E-004	6	..........a	-327.68
	13	1.4	-2.98935E-001	-3.48981E-001	-3.23958E-001	-9.37510E-008	-2.13472E-007	1.19721E-007	-3.49000E-001	4.04373E-004	6	..........a	-327.68
	14	1.5	-2.97011E-001	-3.46940E-001	-3.21975E-001	-9.07250E-008	-2.08800E-007	1.18075E-007	-3.47000E-001	4.13373E-004	6	..........a	-327.68
	15	1.6	-2.94945E-001	-3.45125E-001	-3.20035E-001	-8.77659E-008	-2.04348E-007	1.16582E-007	-3.45000E-001	4.11539E-004	6	..........a	-327.68
	16	1.7	-2.92996E-001	-3.42921E-001	-3.17958E-001	-8.50756E-008	-2.00138E-007	1.15062E-007	-3.43000E-001	4.09206E-004	6	..........a	-327.68
	17	1.8	-2.90858E-001	-3.41025E-001	-3.15941E-001	-8.25796E-008	-1.95868E-007	1.13288E-007	-3.41000E-001	4.03873E-004	6	..........a	-327.68
	18	1.9	-2.89041E-001	-3.38864E-001	-3.13953E-001	-7.97366E-008	-1.91463E-007	1.11727E-007	-3.39000E-001	4.12873E-004	6	..........a	-327.68
	19	2	-2.86888E-001	-3.37054E-001	-3.11971E-001	-7.72993E-008	-1.87307E-007	1.10008E-007	-3.37000E-001	4.08206E-004	6	..........a	-327.68
	20	2.1	-2.85023E-001	-3.34935E-001	-3.09979E-001	-7.46889E-008	-1.83543E-007	1.08855E-007	-3.35000E-001	4.09706E-004	6	..........a	-327.68
	21	2.2	-2.82889E-001	-3.33029E-001	-3.07959E-001	-7.18929E-008	-1.79006E-007	1.07113E-007	-3.33000E-001	4.16373E-004	6	..........a	-327.68
	22	2.3	-2.81072E-001	-3.30908E-001	-3.05990E-001	-6.96103E-008	-1.75390E-007	1.05779E-007	-3.31000E-001	4.19039E-004	6	..........a	-327.68
	23	2.4	-2.78909E-001	-3.29061E-001	-3.03985E-001	-6.73050E-008	-1.71452E-007	1.04147E-007	-3.29000E-001	4.11873E-004	6	..........a	-327.68
	24	2.5	-2.76996E-001	-3.26928E-001	-3.01962E-001	-6.48650E-008	-1.67795E-007	1.02930E-007	-3.27000E-001	4.12373E-004	6	..........a	-327.68
	25	2.6	-2.74924E-001	-3.24974E-001	-2.99949E-001	-6.24354E-008	-1.63877E-007	1.01442E-007	-3.25000E-001	4.11539E-004	6	..........a	-327.68
	26	2.7	-2.72970E-001	-3.22934E-001	-2.97952E-001	-6.02711E-008	-1.60525E-007	1.00253E-007	-3.23000E-001	4.00039E-004	6	..........a	-327.68
	27	2.8	-2.70913E-001	-3.20955E-001	-2.95934E-001	-5.82128E-008	-1.56973E-007	9.87599E-008	-3.21000E-001	3.96706E-004	6	..........a	-327.68
	28	2.9	-2.68946E-001	-3.18879E-001	-2.93912E-001	-5.57985E-008	-1.53317E-007	9.75181E-008	-3.19000E-001	4.02206E-004	6	..........a	-327.68
	29	3	-2.66847E-001	-3.17078E-001	-2.91963E-001	-5.36479E-008	-1.50311E-007	9.66633E-008	-3.17000E-001	4.00873E-004	6	..........a	-327.68
	30	3.1	-2.65086E-001	-3.14948E-001	-2.90017E-001	-5.15183E-008	-1.47010E-007	9.54918E-008	-3.15000E-001	3.97039E-004	6	..........a	-327.68
	31	3.2	-2.62901E-001	-3.13049E-001	-2.87975E-001	-4.95947E-008	-1.43897E-007	9.43023E-008	-3.13000E-001	4.05706E-004	6	..........a	-327.68
	32	3.3	-2.61029E-001	-3.10924E-001	-2.85977E-001	-4.76581E-008	-1.40605E-007	9.29471E-008	-3.11000E-001	4.00039E-004	6	..........a	-327.68
	33	3.4	-2.58893E-001	-3.09040E-001	-2.83967E-001	-4.56576E-008	-1.37529E-007	9.18713E-008	-3.09000E-001	4.06039E-004	6	..........a	-327.68
	34	3.5	-2.57027E-001	-3.06919E-001	-2.81973E-001	-4.38237E-008	-1.34675E-007	9.08512E-008	-3.07000E-001	4.08039E-004	6	..........a	-327.68
	35	3.6	-2.54939E-001	-3.05054E-001	-2.79996E-001	-4.18747E-008	-1.31556E-007	8.96817E-008	-3.05000E-001	4.01539E-004	6	..........a	-327.68
	36	3.7	-2.53038E-001	-3.02960E-001	-2.77999E-001	-4.00335E-008	-1.28528E-007	8.84946E-008	-3.03000E-001	4.15539E-004	6	..........a	-327.68
	37	3.8	-2.50926E-001	-3.01045E-001	-2.75985E-001	-3.82279E-008	-1.25606E-007	8.73778E-008	-3.01000E-001	3.96206E-004	6	..........a	-327.68
	38	3.9	-2.49018E-001	-2.98945E-001	-2.73982E-001	-3.66677E-008	-1.23029E-007	8.63610E-008	-2.99000E-001	4.11373E-004	6	..........a	-327.68
	39	4	-2.46927E-001	-2.97010E-001	-2.71969E-001	-3.46972E-008	-1.20247E-007	8.55502E-008	-2.97000E-001	4.11873E-004	6	..........a	-327.68
	40	4.1	-2.44977E-001	-2.94925E-001	-2.69951E-001	-3.30206E-008	-1.17835E-007	8.48141E-008	-2.95000E-001	4.11039E-004	6	..........a	-327.68
	41	4.2	-2.42848E-001	-2.92940E-001	-2.67894E-001	-3.14051E-008	-1.15150E-007	8.37446E-008	-2.93000E-001	3.99539E-004	6	..........a	-327.68
	42	4.3	-2.41103E-001	-2.90875E-001	-2.65989E-001	-2.98572E-008	-1.12797E-007	8.29396E-008	-2.91000E-001	4.08039E-004	6	..........a	-327.68
	43	4.4	-2.38941E-001	-2.89058E-001	-2.64000E-001	-2.83827E-008	-1.10302E-007	8.19198E-008	-2.89000E-001	4.15373E-004	6	..........a	-327.68
	44	4.5	-2.36998E-001	-2.86899E-001	-2.61949E-001	-2.66491E-008	-1.07974E-007	8.13253E-008	-2.87000E-001	4.04539E-004	6	..........a	-327.68
	45	4.6	-2.34865E-001	-2.85031E-001	-2.59948E-001	-2.51680E-008	-1.05592E-007	8.04242E-008	-2.85000E-001	4.10706E-004	6	..........a	-327.68
	46	4.7	-2.33041E-001	-2.82895E-001	-2.57968E-001	-2.38931E-008	-1.03268E-007	7.93751E-008	-2.83000E-001	4.10706E-004	6	..........a	-327.68
	47	4.8	-2.30929E-001	-2.81099E-001	-2.56014E-001	-2.24706E-008	-1.01136E-007	7.86650E-008	-2.81000E-001	4.11039E-004	6	..........a	-327.68
	48	4.9	-2.29070E-001	-2.78958E-001	-2.54014E-001	-2.10721E-008	-9.88707E-008	7.77986E-008	-2.79000E-001	4.10039E-004	6	..........a	-327.68
	49	5	-2.26904E-001	-2.77050E-001	-2.51977E-001	-1.96419E-008	-9.66730E-008	7.70311E-008	-2.77000E-001	4.13539E-004	6	..........a	-327.68
	50	5.1	-2.25023E-001	-2.74945E-001	-2.49984E-001	-1.85994E-008	-9.45935E-008	7.59940E-008	-2.75000E-001	4.12039E-004	6	..........a	-327.68
	51	5.2	-2.22924E-001	-2.73014E-001	-2.47969E-001	-1.73780E-008	-9.26402E-008	7.52622E-008	-2.73000E-001	4.20706E-004	6	..........a	-327.68
	52	5.3	-2.20993E-001	-2.70964E-001	-2.45979E-001	-1.60895E-008	-9.04346E-008	7.43451E-008	-2.71000E-001	4.08373E-004	6	..........a	-327.68
	53	5.4	-2.18932E-001	-2.69009E-001	-2.43970E-001	-1.51100E-008	-8.84670E-008	7.33570E-008	-2.69000E-001	4.13706E-004	6	..........a	-327.68
	54	5.5	-2.17115E-001	-2.66837E-001	-2.41976E-001	-1.37668E-008	-8.64784E-008	7.27116E-008	-2.67000E-001	4.10706E-004	6	..........a	-327.68
	55	5.6	-2.14914E-001	-2.65102E-001	-2.40008E-001	-1.26780E-008	-8.46942E-008	7.20162E-008	-2.65000E-001	4.08039E-004	6	..........a	-327.68
	56	5.7	-2.12974E-001	-2.62907E-001	-2.37941E-001	-1.14295E-008	-8.27623E-008	7.13327E-008	-2.63000E-001	4.16039E-004	6	..........a	-327.68
	57	5.8	-2.10875E-001	-2.61029E-001	-2.35952E-001	-1.04301E-008	-8.09851E-008	7.05550E-008	-2.61000E-001	4.25873E-004	6	..........a	-327.68
	58	5.9	-2.09024E-001	-2.58895E-001	-2.33959E-001	-9.40328E-009	-7.93795E-008	6.99762E-008	-2.59000E-001	4.26373E-004	6	..........a	-327.68
	59	6	-2.06916E-001	-2.57033E-001	-2.31974E-001	-8.32814E-009	-7.71119E-008	6.87837E-008	-2.57000E-001	4.22039E-004	6	..........a	-327.68
	60	6.1	-2.05020E-001	-2.54942E-001	-2.29981E-001	-7.38002E-009	-7.55227E-008	6.81427E-008	-2.55000E-001	4.16373E-004	6	..........a	-327.68
	61	6.2	-2.02897E-001	-2.53043E-001	-2.27970E-001	-6.46657E-009	-7.40682E-008	6.76016E-008	-2.53000E-001	4.05706E-004	6	..........a	-327.68
	62	6.3	-2.01055E-001	-2.50932E-001	-2.25993E-001	-5.46511E-009	-7.22946E-008	6.68295E-008	-2.51000E-001	4.13706E-004	6	..........a	-327.68
	63	6.4	-1.98948E-001	-2.48995E-001	-2.23971E-001	-4.43898E-009	-7.05777E-008	6.61387E-008	-2.49000E-001	4.21873E-004	6	..........a	-327.68
	64	6.5	-1.97005E-001	-2.46911E-001	-2.21958E-001	-3.40118E-009	-6.90305E-008	6.56294E-008	-2.47000E-001	4.17539E-004	6	..........a	-327.68
	65	6.6	-1.94937E-001	-2.44951E-001	-2.19944E-001	-2.73543E-009	-6.76690E-008	6.49336E-008	-2.45000E-001	4.10206E-004	6	..........a	-327.68
	66	6.7	-1.92999E-001	-2.42857E-001	-2.17928E-001	-1.87499E-009	-6.61238E-008	6.42488E-008	-2.43000E-001	4.16873E-004	6	..........a	-327.68
	67	6.8	-1.90934E-001	-2.41106E-001	-2.16020E-001	-9.55538E-010	-6.44036E-008	6.34481E-008	-2.41000E-001	4.16873E-004	6	..........a	-327.68
	68	6.9	-1.89073E-001	-2.38896E-001	-2.13985E-001	-2.83786E-010	-6.31975E-008	6.29137E-008	-2.39000E-001	4.08706E-004	6	..........a	-327.68
	69	7	-1.86865E-001	-2.36975E-001	-2.11920E-001	7.51012E-010	-6.17206E-008	6.24716E-008	-2.37000E-001	4.21873E-004	6	..........a	-327.68
	70	7.1	-1.85064E-001	-2.34883E-001	-2.09973E-001	1.63146E-009	-6.05405E-008	6.21719E-008	-2.35000E-001	4.10373E-004	6	..........a	-327.68
	71	7.2	-1.82941E-001	-2.33028E-001	-2.07985E-001	2.22253E-009	-5.90233E-008	6.12458E-008	-2.33000E-001	4.19373E-004	6	..........a	-327.68
	72	7.3	-1.81067E-001	-2.30886E-001	-2.05977E-001	3.03830E-009	-5.78048E-008	6.08431E-008	-2.31000E-001	4.18706E-004	6	..........a	-327.68
	73	7.4	-1.78897E-001	-2.29012E-001	-2.03955E-001	3.66272E-009	-5.65573E-008	6.02200E-008	-2.29000E-001	4.05706E-004	6	..........a	-327.68
	74	7.5	-1.77075E-001	-2.26926E-001	-2.02001E-001	4.44348E-009	-5.51521E-008	5.95956E-008	-2.27000E-001	4.08373E-004	6	..........a	-327.68
	75	7.6	-1.74985E-001	-2.24984E-001	-1.99985E-001	5.08356E-009	-5.40500E-008	5.91335E-008	-2.25000E-001	4.20039E-004	6	..........a	-327.68
	76	7.7	-1.73051E-001	-2.22916E-001	-1.97983E-001	5.71964E-009	-5.30068E-008	5.87265E-008	-2.23000E-001	4.21873E-004	6	..........a	-327.68
	77	7.8	-1.70931E-001	-2.20981E-001	-1.95956E-001	6.47241E-009	-5.16623E-008	5.81347E-008	-2.21000E-001	4.10539E-004	6	..........a	-327.68
	78	7.9	-1.69048E-001	-2.18953E-001	-1.94001E-001	7.10715E-009	-5.08079E-008	5.79150E-008	-2.19000E-001	4.03039E-004	6	..........a	-327.68
	79	8	-1.66975E-001	-2.17121E-001	-1.92048E-001	7.63556E-009	-4.97951E-008	5.74306E-008	-2.17000E-001	4.11873E-004	6	..........a	-327.68
	80	8.1	-1.64910E-001	-2.14893E-001	-1.89901E-001	8.41832E-009	-4.87676E-008	5.71859E-008	-2.15000E-001	4.08373E-004	6	..........a	-327.68
	81	8.2	-1.62837E-001	-2.13007E-001	-1.87922E-001	9.10908E-009	-4.76618E-008	5.67709E-008	-2.13000E-001	4.04039E-004	6	..........a	-327.68
	82	8.3	-1.61049E-001	-2.10923E-001	-1.85986E-001	9.79483E-009	-4.64777E-008	5.62725E-008	-2.11000E-001	3.99039E-004	6	..........a	-327.68
	83	8.4	-1.58953E-001	-2.09048E-001	-1.84000E-001	1.04269E-008	-4.55929E-008	5.60198E-008	-2.09000E-001	4.03206E-004	6	..........a	-327.68
	84	8.5	-1.57052E-001	-2.06924E-001	-1.81988E-001	1.09646E-008	-4.47441E-008	5.57088E-008	-2.07000E-001	3.96373E-004	6	..........a	-327.68
	85	8.6	-1.54881E-001	-2.05030E-001	-1.79956E-001	1.15854E-008	-4.38287E-008	5.54141E-008	-2.05000E-001	3.98039E-004	6	..........a	-327.68
	86	8.7	-1.53095E-001	-2.02918E-001	-1.78006E-001	1.21268E-008	-4.29572E-008	5.50840E-008	-2.03000E-001	4.13206E-004	6	..........a	-327.68
	87	8.8	-1.50954E-001	-2.01046E-001	-1.76000E-001	1.25788E-008	-4.18617E-008	5.44406E-008	-2.01000E-001	4.10039E-004	6	..........a	-327.68
	88	8.9	-1.49041E-001	-1.98940E-001	-1.73990E-001	1.33810E-008	-4.11837E-008	5.45646E-008	-1.99000E-001	4.07873E-004	6	..........a	-327.68
	89	9	-1.46919E-001	-1.97014E-001	-1.71966E-001	1.36800E-008	-4.04906E-008	5.41706E-008	-1.97000E-001	4.09706E-004	6	..........a	-327.68
	90	9.1	-1.45031E-001	-1.94933E-001	-1.69982E-001	1.41601E-008	-3.96775E-008	5.38375E-008	-1.95000E-001	4.05206E-004	6	..........a	-327.68
	91	9.2	-1.42978E-001	-1.92994E-001	-1.67986E-001	1.47441E-008	-3.85937E-008	5.33378E-008	-1.93000E-001	4.05206E-004	6	..........a	-327.68
	92	9.3	-1.41020E-001	-1.90985E-001	-1.66002E-001	1.51108E-008	-3.80836E-008	5.31944E-008	-1.91000E-001	4.10039E-004	6	..........a	-327.68
	93	9.4	-1.38818E-001	-1.89028E-001	-1.63923E-001	1.57346E-008	-3.71268E-008	5.28614E-008	-1.89000E-001	4.11539E-004	6	..........a	-327.68
	94	9.5	-1.37093E-001	-1.86877E-001	-1.61985E-001	1.62156E-008	-3.64664E-008	5.26820E-008	-1.87000E-001	4.06039E-004	6	..........a	-327.68
	95	9.6	-1.34959E-001	-1.85064E-001	-1.60012E-001	1.67484E-008	-3.59397E-008	5.26880E-008	-1.85000E-001	4.05539E-004	6	..........a	-327.68
	96	9.7	-1.33015E-001	-1.82954E-001	-1.57984E-001	1.70371E-008	-3.53106E-008	5.23477E-008	-1.83000E-001	4.07206E-004	6	..........a	-327.68
	97	9.8	-1.30876E-001	-1.81049E-001	-1.55963E-001	1.75105E-008	-3.45885E-008	5.20990E-008	-1.81000E-001	4.06206E-004	6	..........a	-327.68
	98	9.9	-1.29043E-001	-1.78900E-001	-1.53971E-001	1.80502E-008	-3.37690E-008	5.18193E-008	-1.79000E-001	4.06873E-004	6	..........a	-327.68
	99	10	-1.26960E-001	-1.77055E-001	-1.52008E-001	1.84526E-008	-3.32780E-008	5.17306E-008	-1.77000E-001	4.09206E-004	6	..........a	-327.68
	100	10.1	-1.25057E-001	-1.74969E-001	-1.50013E-001	1.89553E-008	-3.24719E-008	5.14272E-008	-1.75000E-001	4.17373E-004	6	..........a	-327.68