File: Sample Data/Concentration Curve Data/C-COM1/SWV_10Hz STD1 10  fgml 081020_#3.DTA
EXPLAIN
TAG	SQUARE_WAVE
TITLE	LABEL	Square Wave Voltammetry	Test Identifier
DATE	LABEL	8/10/2020	Date
TIME	LABEL	17:30:07	Time
NOTES	NOTES	1	Notes...
	 STD1, 10  fg/mL 08102
PSTAT	PSTAT	REF600-24079	Potentiostat
VINIT	QUANT	-3.50000E-001	Initial E (V)
VFINAL	QUANT	-1.50000E-001	Final E (V)
STEPSIZE	QUANT	2.00000E+000	Step Size (mV)
TIMERRES	QUANT	3.33340E-005	&Timer Resolution
FREQUENCY	QUANT	1.00000E+001	Frequency (Hz)
PULSESIZE	QUANT	2.50000E+001	Pulse Size E (mV)
PULSEON	QUANT	1.00000E-001	Pulse &Time (s)
NOISEREJECT	TOGGLE	F	Noise Rejection
AREA	QUANT	2.00000E-002	Sample Area (cm^2)
IMODE	SELECTOR	1	I/E Range Mode
IRANGE	QUANT	1.00000E-003	Max Current (mA)
EQDELAY	IQUANT	10	Equil. Time (s)
IRCOMP	SELECTOR	0	IRComp
PFCOR	QUANT	5.00000E+001	PF Corr. (ohm)
CYCLES	IQUANT	101	C&ycles (#)
ELECTRODETYPE	SELECTOR	0	Electrode Type
STRIPPING	TOGGLE	F	Used for Stripping
POLARITY	TOGGLE	F	Signal Polarity
LINEFREQ	IQUANT	60	Line Frequency (Hz)
INTPERIOD	QUANT	3.3334E-005	Integration Period (s)
SEQUENCER	TOGGLE	TRUE	Run as Sequence
PSTATMODEL	IQUANT	4	Pstat Model
PSTATSECTION	LABEL	REF600-24079	Pstat Section
PSTATSERIALNO	LABEL	24079	Pstat Serial Number
CTRLMODE	IQUANT	1	Control Mode
ELECTROMETER	IQUANT	0	RE=0 or CS=1
IESTAB	IQUANT	2	I/E Stability
CASPEED	IQUANT	6	Control Amp Speed
CONVENTION	IQUANT	1	Current Convention
ICHRANGE	IQUANT	2	Ich Range
ICHRANGEMODE	TOGGLE	F	Ich Auto Range
ICHOFFSETENABLE	TOGGLE	F	Ich Offset Enable
ICHOFFSET	QUANT	0	Ich Offset (V)
ICHFILTER	IQUANT	2	Ich Filter
VCHRANGE	IQUANT	2	Vch Range
VCHRANGEMODE	TOGGLE	F	Vch Auto Range
VCHOFFSETENABLE	TOGGLE	F	Vch Offset Enable
VCHOFFSET	QUANT	0	Vch Offset (V)
VCHFILTER	IQUANT	2	Vch Filter
ACHRANGE	IQUANT	2	Ach Range
ACHOFFSETENABLE	TOGGLE	F	Ach Offset Enable
ACHOFFSET	QUANT	0	Ach Offset (V)
ACHFILTER	IQUANT	1	Ach Filter
IERANGELOWERLIMIT	IQUANT	1	I/E Range Lower Limit
IERANGEMODE	TOGGLE	F	I/E AutoRange
IERANGE	IQUANT	6	I/E Range
POSFEEDENABLE	TOGGLE	F	Positive Feedback IR Comp
POSFEEDRESISTANCE	QUANT	0	Positive Feedback Resistance (ohm)
ACHSELECT	IQUANT	0	Ach Select
SENSECABLEID	IQUANT	13	Sense Cable ID
PWRCABLEID	IQUANT	13	Power Cable ID
DCCALDATE	LABEL	6/30/2020	DC Calibration Date
ACCALDATE	LABEL	6/30/2020	AC Calibration Date
THERMOSELECT	IQUANT	1	Thermo Select
FRAMEWORKVERSION	LABEL	7.8.2	Framework Version
INSTRUMENTVERSION	LABEL	4.40	Instrument Version
CURVE	TABLE	101
	Pt	T	Vfwd	Vrev	Vstep	Ifwd	Irev	Idif	Sig	Ach	IERange	Over	Temp
	#	s	V	V	V	A	A	A	V	V	#	bits	deg C
	0	0.1	-3.25008E-001	-3.74942E-001	-3.49975E-001	-1.33271E-007	-2.54298E-007	1.21026E-007	-3.75000E-001	4.06539E-004	6	..........a	-327.68
	1	0.2	-3.22936E-001	-3.72984E-001	-3.47960E-001	-1.19462E-007	-2.45668E-007	1.26207E-007	-3.73000E-001	4.09039E-004	6	..........a	-327.68
	2	0.3	-3.20952E-001	-3.70860E-001	-3.45906E-001	-1.14760E-007	-2.39535E-007	1.24775E-007	-3.71000E-001	4.11039E-004	6	..........a	-327.68
	3	0.4	-3.18888E-001	-3.69100E-001	-3.43994E-001	-1.11085E-007	-2.33628E-007	1.22543E-007	-3.69000E-001	4.10206E-004	6	..........a	-327.68
	4	0.5	-3.17028E-001	-3.66929E-001	-3.41979E-001	-1.07881E-007	-2.28721E-007	1.20839E-007	-3.67000E-001	4.13206E-004	6	..........a	-327.68
	5	0.6	-3.14932E-001	-3.65033E-001	-3.39982E-001	-1.04610E-007	-2.23528E-007	1.18918E-007	-3.65000E-001	4.16539E-004	6	..........a	-327.68
	6	0.7	-3.13040E-001	-3.62864E-001	-3.37952E-001	-1.01967E-007	-2.18434E-007	1.16467E-007	-3.63000E-001	4.16373E-004	6	..........a	-327.68
	7	0.8	-3.10914E-001	-3.61050E-001	-3.35982E-001	-9.91104E-008	-2.13847E-007	1.14736E-007	-3.61000E-001	4.17039E-004	6	..........a	-327.68
	8	0.9	-3.08998E-001	-3.58918E-001	-3.33958E-001	-9.63043E-008	-2.09162E-007	1.12858E-007	-3.59000E-001	4.14873E-004	6	..........a	-327.68
	9	1	-3.06901E-001	-3.57048E-001	-3.31975E-001	-9.36503E-008	-2.04869E-007	1.11218E-007	-3.57000E-001	4.06206E-004	6	..........a	-327.68
	10	1.1	-3.05048E-001	-3.54925E-001	-3.29987E-001	-9.10007E-008	-2.00859E-007	1.09858E-007	-3.55000E-001	4.06539E-004	6	..........a	-327.68
	11	1.2	-3.02974E-001	-3.53032E-001	-3.28003E-001	-8.84053E-008	-1.96391E-007	1.07986E-007	-3.53000E-001	4.06873E-004	6	..........a	-327.68
	12	1.3	-3.01021E-001	-3.50953E-001	-3.25987E-001	-8.56370E-008	-1.92067E-007	1.06430E-007	-3.51000E-001	3.96039E-004	6	..........a	-327.68
	13	1.4	-2.98925E-001	-3.49018E-001	-3.23972E-001	-8.30867E-008	-1.88057E-007	1.04970E-007	-3.49000E-001	3.99873E-004	6	..........a	-327.68
	14	1.5	-2.96978E-001	-3.46940E-001	-3.21959E-001	-8.07130E-008	-1.84226E-007	1.03513E-007	-3.47000E-001	4.04206E-004	6	..........a	-327.68
	15	1.6	-2.94914E-001	-3.45124E-001	-3.20019E-001	-7.81374E-008	-1.80310E-007	1.02173E-007	-3.45000E-001	4.09706E-004	6	..........a	-327.68
	16	1.7	-2.93013E-001	-3.42886E-001	-3.17949E-001	-7.55074E-008	-1.76294E-007	1.00786E-007	-3.43000E-001	4.13539E-004	6	..........a	-327.68
	17	1.8	-2.90869E-001	-3.41030E-001	-3.15949E-001	-7.32414E-008	-1.72719E-007	9.94780E-008	-3.41000E-001	4.24373E-004	6	..........a	-327.68
	18	1.9	-2.89025E-001	-3.38870E-001	-3.13947E-001	-7.10461E-008	-1.69168E-007	9.81222E-008	-3.39000E-001	4.15373E-004	6	..........a	-327.68
	19	2	-2.86897E-001	-3.37063E-001	-3.11980E-001	-6.86382E-008	-1.65559E-007	9.69213E-008	-3.37000E-001	4.19873E-004	6	..........a	-327.68
	20	2.1	-2.85034E-001	-3.34941E-001	-3.09988E-001	-6.66076E-008	-1.61931E-007	9.53238E-008	-3.35000E-001	4.16539E-004	6	..........a	-327.68
	21	2.2	-2.82883E-001	-3.33014E-001	-3.07948E-001	-6.43113E-008	-1.58662E-007	9.43510E-008	-3.33000E-001	4.21373E-004	6	..........a	-327.68
	22	2.3	-2.81065E-001	-3.30906E-001	-3.05986E-001	-6.20593E-008	-1.55198E-007	9.31392E-008	-3.31000E-001	4.16873E-004	6	..........a	-327.68
	23	2.4	-2.78910E-001	-3.29056E-001	-3.03983E-001	-6.00504E-008	-1.52217E-007	9.21670E-008	-3.29000E-001	4.13706E-004	6	..........a	-327.68
	24	2.5	-2.76971E-001	-3.26955E-001	-3.01963E-001	-5.79241E-008	-1.48880E-007	9.09559E-008	-3.27000E-001	4.07373E-004	6	..........a	-327.68
	25	2.6	-2.74935E-001	-3.25000E-001	-2.99967E-001	-5.60225E-008	-1.45870E-007	8.98478E-008	-3.25000E-001	4.14039E-004	6	..........a	-327.68
	26	2.7	-2.72977E-001	-3.22937E-001	-2.97957E-001	-5.38633E-008	-1.43080E-007	8.92167E-008	-3.23000E-001	4.04706E-004	6	..........a	-327.68
	27	2.8	-2.70925E-001	-3.20993E-001	-2.95959E-001	-5.17203E-008	-1.39826E-007	8.81052E-008	-3.21000E-001	4.11873E-004	6	..........a	-327.68
	28	2.9	-2.68962E-001	-3.18973E-001	-2.93967E-001	-4.99151E-008	-1.37093E-007	8.71778E-008	-3.19000E-001	3.98706E-004	6	..........a	-327.68
	29	3	-2.66839E-001	-3.17041E-001	-2.91940E-001	-4.79549E-008	-1.34396E-007	8.64410E-008	-3.17000E-001	4.04539E-004	6	..........a	-327.68
	30	3.1	-2.65090E-001	-3.14895E-001	-2.89993E-001	-4.62053E-008	-1.31608E-007	8.54029E-008	-3.15000E-001	4.04373E-004	6	..........a	-327.68
	31	3.2	-2.62919E-001	-3.13019E-001	-2.87969E-001	-4.45024E-008	-1.28778E-007	8.42754E-008	-3.13000E-001	4.14706E-004	6	..........a	-327.68
	32	3.3	-2.61007E-001	-3.10921E-001	-2.85964E-001	-4.26978E-008	-1.26099E-007	8.34009E-008	-3.11000E-001	4.12706E-004	6	..........a	-327.68
	33	3.4	-2.58885E-001	-3.09032E-001	-2.83958E-001	-4.08303E-008	-1.23777E-007	8.29472E-008	-3.09000E-001	4.14873E-004	6	..........a	-327.68
	34	3.5	-2.57020E-001	-3.06917E-001	-2.81969E-001	-3.89444E-008	-1.21176E-007	8.22315E-008	-3.07000E-001	4.12873E-004	6	..........a	-327.68
	35	3.6	-2.54940E-001	-3.05051E-001	-2.79995E-001	-3.72075E-008	-1.18614E-007	8.14067E-008	-3.05000E-001	4.07706E-004	6	..........a	-327.68
	36	3.7	-2.53012E-001	-3.02960E-001	-2.77986E-001	-3.57120E-008	-1.16499E-007	8.07873E-008	-3.03000E-001	4.07206E-004	6	..........a	-327.68
	37	3.8	-2.50924E-001	-3.01027E-001	-2.75975E-001	-3.39877E-008	-1.13882E-007	7.98945E-008	-3.01000E-001	4.14706E-004	6	..........a	-327.68
	38	3.9	-2.49007E-001	-2.98932E-001	-2.73970E-001	-3.23659E-008	-1.11868E-007	7.95018E-008	-2.99000E-001	4.06873E-004	6	..........a	-327.68
	39	4	-2.46939E-001	-2.96991E-001	-2.71965E-001	-3.08980E-008	-1.09746E-007	7.88484E-008	-2.97000E-001	4.10206E-004	6	..........a	-327.68
	40	4.1	-2.44967E-001	-2.94918E-001	-2.69943E-001	-2.95345E-008	-1.07315E-007	7.77802E-008	-2.95000E-001	4.18373E-004	6	..........a	-327.68
	41	4.2	-2.42859E-001	-2.93020E-001	-2.67939E-001	-2.80326E-008	-1.05372E-007	7.73392E-008	-2.93000E-001	4.11373E-004	6	..........a	-327.68
	42	4.3	-2.41084E-001	-2.90870E-001	-2.65977E-001	-2.66565E-008	-1.03251E-007	7.65941E-008	-2.91000E-001	4.17539E-004	6	..........a	-327.68
	43	4.4	-2.38924E-001	-2.89050E-001	-2.63987E-001	-2.51793E-008	-1.01254E-007	7.60750E-008	-2.89000E-001	4.12039E-004	6	..........a	-327.68
	44	4.5	-2.36963E-001	-2.86914E-001	-2.61938E-001	-2.39045E-008	-9.92340E-008	7.53296E-008	-2.87000E-001	4.10873E-004	6	..........a	-327.68
	45	4.6	-2.34860E-001	-2.85017E-001	-2.59939E-001	-2.28683E-008	-9.71294E-008	7.42611E-008	-2.85000E-001	4.16373E-004	6	..........a	-327.68
	46	4.7	-2.33037E-001	-2.82903E-001	-2.57970E-001	-2.14301E-008	-9.53002E-008	7.38701E-008	-2.83000E-001	4.16706E-004	6	..........a	-327.68
	47	4.8	-2.30929E-001	-2.81080E-001	-2.56004E-001	-2.03313E-008	-9.35727E-008	7.32413E-008	-2.81000E-001	4.16206E-004	6	..........a	-327.68
	48	4.9	-2.29031E-001	-2.78973E-001	-2.54002E-001	-1.91965E-008	-9.16377E-008	7.24412E-008	-2.79000E-001	4.11373E-004	6	..........a	-327.68
	49	5	-2.26909E-001	-2.77021E-001	-2.51965E-001	-1.83467E-008	-8.98582E-008	7.15114E-008	-2.77000E-001	4.14539E-004	6	..........a	-327.68
	50	5.1	-2.25011E-001	-2.74929E-001	-2.49970E-001	-1.68662E-008	-8.79296E-008	7.10634E-008	-2.75000E-001	4.14373E-004	6	..........a	-327.68
	51	5.2	-2.22927E-001	-2.73014E-001	-2.47971E-001	-1.58868E-008	-8.61934E-008	7.03066E-008	-2.73000E-001	4.09206E-004	6	..........a	-327.68
	52	5.3	-2.20987E-001	-2.70945E-001	-2.45966E-001	-1.48756E-008	-8.43555E-008	6.94798E-008	-2.71000E-001	4.15039E-004	6	..........a	-327.68
	53	5.4	-2.18927E-001	-2.68987E-001	-2.43957E-001	-1.36078E-008	-8.28580E-008	6.92501E-008	-2.69000E-001	4.11206E-004	6	..........a	-327.68
	54	5.5	-2.17115E-001	-2.66844E-001	-2.41980E-001	-1.25730E-008	-8.10884E-008	6.85154E-008	-2.67000E-001	4.18706E-004	6	..........a	-327.68
	55	5.6	-2.14914E-001	-2.65084E-001	-2.39999E-001	-1.18799E-008	-7.95032E-008	6.76233E-008	-2.65000E-001	4.20206E-004	6	..........a	-327.68
	56	5.7	-2.12954E-001	-2.62892E-001	-2.37923E-001	-1.08421E-008	-7.79027E-008	6.70605E-008	-2.63000E-001	4.18206E-004	6	..........a	-327.68
	57	5.8	-2.10868E-001	-2.61040E-001	-2.35954E-001	-9.73232E-009	-7.63065E-008	6.65741E-008	-2.61000E-001	4.16873E-004	6	..........a	-327.68
	58	5.9	-2.09031E-001	-2.58890E-001	-2.33961E-001	-9.05490E-009	-7.45716E-008	6.55167E-008	-2.59000E-001	4.22039E-004	6	..........a	-327.68
	59	6	-2.06924E-001	-2.57048E-001	-2.31986E-001	-8.15545E-009	-7.31694E-008	6.50139E-008	-2.57000E-001	4.22039E-004	6	..........a	-327.68
	60	6.1	-2.05006E-001	-2.54934E-001	-2.29970E-001	-7.30368E-009	-7.16749E-008	6.43712E-008	-2.55000E-001	4.19039E-004	6	..........a	-327.68
	61	6.2	-2.02896E-001	-2.53029E-001	-2.27962E-001	-6.46291E-009	-7.01187E-008	6.36558E-008	-2.53000E-001	4.14373E-004	6	..........a	-327.68
	62	6.3	-2.01023E-001	-2.50936E-001	-2.25979E-001	-5.55279E-009	-6.88325E-008	6.32797E-008	-2.51000E-001	4.22873E-004	6	..........a	-327.68
	63	6.4	-1.98952E-001	-2.48985E-001	-2.23968E-001	-4.89104E-009	-6.72500E-008	6.23589E-008	-2.49000E-001	4.22706E-004	6	..........a	-327.68
	64	6.5	-1.96997E-001	-2.46911E-001	-2.21954E-001	-3.93925E-009	-6.58588E-008	6.19196E-008	-2.47000E-001	4.22373E-004	6	..........a	-327.68
	65	6.6	-1.94935E-001	-2.44934E-001	-2.19935E-001	-3.09748E-009	-6.44650E-008	6.13675E-008	-2.45000E-001	4.19539E-004	6	..........a	-327.68
	66	6.7	-1.92980E-001	-2.42847E-001	-2.17913E-001	-2.47140E-009	-6.32391E-008	6.07677E-008	-2.43000E-001	4.20206E-004	6	..........a	-327.68
	67	6.8	-1.90965E-001	-2.41084E-001	-2.16024E-001	-1.67263E-009	-6.18706E-008	6.01980E-008	-2.41000E-001	4.20373E-004	6	..........a	-327.68
	68	6.9	-1.89030E-001	-2.38903E-001	-2.13967E-001	-7.78182E-010	-6.08492E-008	6.00710E-008	-2.39000E-001	4.11039E-004	6	..........a	-327.68
	69	7	-1.86872E-001	-2.36920E-001	-2.11896E-001	-2.37780E-010	-5.94907E-008	5.92529E-008	-2.37000E-001	4.17373E-004	6	..........a	-327.68
	70	7.1	-1.85020E-001	-2.34879E-001	-2.09949E-001	5.25317E-010	-5.82578E-008	5.87832E-008	-2.35000E-001	4.15539E-004	6	..........a	-327.68
	71	7.2	-1.82929E-001	-2.33041E-001	-2.07985E-001	1.20507E-009	-5.71724E-008	5.83774E-008	-2.33000E-001	4.14539E-004	6	..........a	-327.68
	72	7.3	-1.81043E-001	-2.30909E-001	-2.05976E-001	1.84849E-009	-5.59805E-008	5.78290E-008	-2.31000E-001	4.07373E-004	6	..........a	-327.68
	73	7.4	-1.78891E-001	-2.29005E-001	-2.03948E-001	2.53624E-009	-5.46567E-008	5.71929E-008	-2.29000E-001	4.07039E-004	6	..........a	-327.68
	74	7.5	-1.77052E-001	-2.26923E-001	-2.01987E-001	3.00363E-009	-5.36609E-008	5.66645E-008	-2.27000E-001	4.10039E-004	6	..........a	-327.68
	75	7.6	-1.74979E-001	-2.25004E-001	-1.99991E-001	3.67905E-009	-5.27278E-008	5.64068E-008	-2.25000E-001	4.06873E-004	6	..........a	-327.68
	76	7.7	-1.73046E-001	-2.22920E-001	-1.97983E-001	4.32447E-009	-5.16400E-008	5.59645E-008	-2.23000E-001	4.07206E-004	6	..........a	-327.68
	77	7.8	-1.70930E-001	-2.20980E-001	-1.95955E-001	4.84953E-009	-5.06132E-008	5.54627E-008	-2.21000E-001	4.09206E-004	6	..........a	-327.68
	78	7.9	-1.69015E-001	-2.18949E-001	-1.93982E-001	5.40260E-009	-4.98514E-008	5.52540E-008	-2.19000E-001	4.04039E-004	6	..........a	-327.68
	79	8	-1.66957E-001	-2.17105E-001	-1.92031E-001	5.99501E-009	-4.88130E-008	5.48080E-008	-2.17000E-001	4.02706E-004	6	..........a	-327.68
	80	8.1	-1.64917E-001	-2.14888E-001	-1.89902E-001	6.53208E-009	-4.77322E-008	5.42642E-008	-2.15000E-001	4.00539E-004	6	..........a	-327.68
	81	8.2	-1.62854E-001	-2.12981E-001	-1.87918E-001	7.21817E-009	-4.68310E-008	5.40492E-008	-2.13000E-001	3.92873E-004	6	..........a	-327.68
	82	8.3	-1.61016E-001	-2.10924E-001	-1.85970E-001	7.90526E-009	-4.58199E-008	5.37252E-008	-2.11000E-001	3.98873E-004	6	..........a	-327.68
	83	8.4	-1.58945E-001	-2.09028E-001	-1.83986E-001	8.15595E-009	-4.50332E-008	5.31891E-008	-2.09000E-001	3.94206E-004	6	..........a	-327.68
	84	8.5	-1.56993E-001	-2.06924E-001	-1.81958E-001	8.75470E-009	-4.42080E-008	5.29627E-008	-2.07000E-001	4.02206E-004	6	..........a	-327.68
	85	8.6	-1.54881E-001	-2.05027E-001	-1.79954E-001	9.44779E-009	-4.33279E-008	5.27757E-008	-2.05000E-001	3.87039E-004	6	..........a	-327.68
	86	8.7	-1.53072E-001	-2.02916E-001	-1.77994E-001	9.61914E-009	-4.24308E-008	5.20500E-008	-2.03000E-001	3.90206E-004	6	..........a	-327.68
	87	8.8	-1.50977E-001	-2.01040E-001	-1.76008E-001	1.02562E-008	-4.18217E-008	5.20780E-008	-2.01000E-001	3.96373E-004	6	..........a	-327.68
	88	8.9	-1.49017E-001	-1.98955E-001	-1.73986E-001	1.07863E-008	-4.11327E-008	5.19189E-008	-1.99000E-001	3.94206E-004	6	..........a	-327.68
	89	9	-1.46924E-001	-1.97006E-001	-1.71965E-001	1.14107E-008	-4.05319E-008	5.19426E-008	-1.97000E-001	3.87539E-004	6	..........a	-327.68
	90	9.1	-1.45010E-001	-1.94942E-001	-1.69976E-001	1.16201E-008	-3.96871E-008	5.13072E-008	-1.95000E-001	3.94373E-004	6	..........a	-327.68
	91	9.2	-1.42971E-001	-1.92995E-001	-1.67983E-001	1.22178E-008	-3.90464E-008	5.12642E-008	-1.93000E-001	3.95373E-004	6	..........a	-327.68
	92	9.3	-1.41014E-001	-1.90968E-001	-1.65991E-001	1.27445E-008	-3.81336E-008	5.08781E-008	-1.91000E-001	3.82373E-004	6	..........a	-327.68
	93	9.4	-1.38834E-001	-1.88976E-001	-1.63905E-001	1.31693E-008	-3.77369E-008	5.09061E-008	-1.89000E-001	3.84539E-004	6	..........a	-327.68
	94	9.5	-1.37066E-001	-1.86867E-001	-1.61966E-001	1.35510E-008	-3.68481E-008	5.03991E-008	-1.87000E-001	3.85206E-004	6	..........a	-327.68
	95	9.6	-1.34978E-001	-1.85025E-001	-1.60002E-001	1.39200E-008	-3.61697E-008	5.00897E-008	-1.85000E-001	3.76706E-004	6	..........a	-327.68
	96	9.7	-1.32964E-001	-1.82965E-001	-1.57965E-001	1.44184E-008	-3.56426E-008	5.00610E-008	-1.83000E-001	3.83206E-004	6	..........a	-327.68
	97	9.8	-1.30874E-001	-1.81009E-001	-1.55942E-001	1.49685E-008	-3.48662E-008	4.98347E-008	-1.81000E-001	3.83206E-004	6	..........a	-327.68
	98	9.9	-1.29025E-001	-1.78906E-001	-1.53965E-001	1.52255E-008	-3.46755E-008	4.99010E-008	-1.79000E-001	3.91373E-004	6	..........a	-327.68
	99	10	-1.26981E-001	-1.77045E-001	-1.52013E-001	1.58679E-008	-3.39131E-008	4.97810E-008	-1.77000E-001	3.79373E-004	6	..........a	-327.68
	100	10.1	-1.25018E-001	-1.74982E-001	-1.50000E-001	1.61660E-008	-3.33090E-008	4.94750E-008	-1.75000E-001	3.78039E-004	6	..........a	-327.68