File: Sample Data/Concentration Curve Data/C-COM1/SWV_10Hz STD1 50  fgml 081020_#8.DTA
EXPLAIN
TAG	SQUARE_WAVE
TITLE	LABEL	Square Wave Voltammetry	Test Identifier
DATE	LABEL	8/10/2020	Date
TIME	LABEL	19:01:10	Time
NOTES	NOTES	1	Notes...
	 STD1 50  fg/mL 08102
PSTAT	PSTAT	REF600-24079	Potentiostat
VINIT	QUANT	-3.50000E-001	Initial E (V)
VFINAL	QUANT	-1.50000E-001	Final E (V)
STEPSIZE	QUANT	2.00000E+000	Step Size (mV)
TIMERRES	QUANT	3.33340E-005	&Timer Resolution
FREQUENCY	QUANT	1.00000E+001	Frequency (Hz)
PULSESIZE	QUANT	2.50000E+001	Pulse Size E (mV)
PULSEON	QUANT	1.00000E-001	Pulse &Time (s)
NOISEREJECT	TOGGLE	F	Noise Rejection
AREA	QUANT	2.00000E-002	Sample Area (cm^2)
IMODE	SELECTOR	1	I/E Range Mode
IRANGE	QUANT	1.00000E-003	Max Current (mA)
EQDELAY	IQUANT	10	Equil. Time (s)
IRCOMP	SELECTOR	0	IRComp
PFCOR	QUANT	5.00000E+001	PF Corr. (ohm)
CYCLES	IQUANT	101	C&ycles (#)
ELECTRODETYPE	SELECTOR	0	Electrode Type
STRIPPING	TOGGLE	F	Used for Stripping
POLARITY	TOGGLE	F	Signal Polarity
LINEFREQ	IQUANT	60	Line Frequency (Hz)
INTPERIOD	QUANT	3.3334E-005	Integration Period (s)
SEQUENCER	TOGGLE	TRUE	Run as Sequence
PSTATMODEL	IQUANT	4	Pstat Model
PSTATSECTION	LABEL	REF600-24079	Pstat Section
PSTATSERIALNO	LABEL	24079	Pstat Serial Number
CTRLMODE	IQUANT	1	Control Mode
ELECTROMETER	IQUANT	0	RE=0 or CS=1
IESTAB	IQUANT	2	I/E Stability
CASPEED	IQUANT	6	Control Amp Speed
CONVENTION	IQUANT	1	Current Convention
ICHRANGE	IQUANT	2	Ich Range
ICHRANGEMODE	TOGGLE	F	Ich Auto Range
ICHOFFSETENABLE	TOGGLE	F	Ich Offset Enable
ICHOFFSET	QUANT	0	Ich Offset (V)
ICHFILTER	IQUANT	2	Ich Filter
VCHRANGE	IQUANT	2	Vch Range
VCHRANGEMODE	TOGGLE	F	Vch Auto Range
VCHOFFSETENABLE	TOGGLE	F	Vch Offset Enable
VCHOFFSET	QUANT	0	Vch Offset (V)
VCHFILTER	IQUANT	2	Vch Filter
ACHRANGE	IQUANT	2	Ach Range
ACHOFFSETENABLE	TOGGLE	F	Ach Offset Enable
ACHOFFSET	QUANT	0	Ach Offset (V)
ACHFILTER	IQUANT	1	Ach Filter
IERANGELOWERLIMIT	IQUANT	1	I/E Range Lower Limit
IERANGEMODE	TOGGLE	F	I/E AutoRange
IERANGE	IQUANT	6	I/E Range
POSFEEDENABLE	TOGGLE	F	Positive Feedback IR Comp
POSFEEDRESISTANCE	QUANT	0	Positive Feedback Resistance (ohm)
ACHSELECT	IQUANT	0	Ach Select
SENSECABLEID	IQUANT	13	Sense Cable ID
PWRCABLEID	IQUANT	13	Power Cable ID
DCCALDATE	LABEL	6/30/2020	DC Calibration Date
ACCALDATE	LABEL	6/30/2020	AC Calibration Date
THERMOSELECT	IQUANT	1	Thermo Select
FRAMEWORKVERSION	LABEL	7.8.2	Framework Version
INSTRUMENTVERSION	LABEL	4.40	Instrument Version
CURVE	TABLE	101
	Pt	T	Vfwd	Vrev	Vstep	Ifwd	Irev	Idif	Sig	Ach	IERange	Over	Temp
	#	s	V	V	V	A	A	A	V	V	#	bits	deg C
	0	0.1	-3.25032E-001	-3.74932E-001	-3.49982E-001	-1.46387E-007	-2.85537E-007	1.39149E-007	-3.75000E-001	4.06706E-004	6	..........a	-327.68
	1	0.2	-3.22944E-001	-3.72983E-001	-3.47964E-001	-1.31509E-007	-2.75273E-007	1.43764E-007	-3.73000E-001	4.05039E-004	6	..........a	-327.68
	2	0.3	-3.20980E-001	-3.70862E-001	-3.45921E-001	-1.26406E-007	-2.68286E-007	1.41880E-007	-3.71000E-001	4.08039E-004	6	..........a	-327.68
	3	0.4	-3.18895E-001	-3.69118E-001	-3.44006E-001	-1.22348E-007	-2.61949E-007	1.39601E-007	-3.69000E-001	4.05039E-004	6	..........a	-327.68
	4	0.5	-3.17074E-001	-3.66939E-001	-3.42007E-001	-1.18576E-007	-2.55844E-007	1.37267E-007	-3.67000E-001	4.05206E-004	6	..........a	-327.68
	5	0.6	-3.14924E-001	-3.65057E-001	-3.39991E-001	-1.15051E-007	-2.50191E-007	1.35140E-007	-3.65000E-001	4.05706E-004	6	..........a	-327.68
	6	0.7	-3.13054E-001	-3.62880E-001	-3.37967E-001	-1.11790E-007	-2.44485E-007	1.32695E-007	-3.63000E-001	4.01373E-004	6	..........a	-327.68
	7	0.8	-3.10902E-001	-3.61073E-001	-3.35988E-001	-1.08691E-007	-2.39092E-007	1.30402E-007	-3.61000E-001	4.12039E-004	6	..........a	-327.68
	8	0.9	-3.09017E-001	-3.58949E-001	-3.33983E-001	-1.05272E-007	-2.33803E-007	1.28531E-007	-3.59000E-001	3.99039E-004	6	..........a	-327.68
	9	1	-3.06934E-001	-3.57079E-001	-3.32006E-001	-1.01962E-007	-2.28516E-007	1.26554E-007	-3.57000E-001	4.03706E-004	6	..........a	-327.68
	10	1.1	-3.05079E-001	-3.54945E-001	-3.30012E-001	-9.91094E-008	-2.23826E-007	1.24717E-007	-3.55000E-001	4.02039E-004	6	..........a	-327.68
	11	1.2	-3.02982E-001	-3.53068E-001	-3.28025E-001	-9.61516E-008	-2.18893E-007	1.22742E-007	-3.53000E-001	3.93206E-004	6	..........a	-327.68
	12	1.3	-3.01058E-001	-3.50939E-001	-3.25998E-001	-9.33056E-008	-2.13980E-007	1.20674E-007	-3.51000E-001	4.10206E-004	6	..........a	-327.68
	13	1.4	-2.98955E-001	-3.49011E-001	-3.23983E-001	-9.04583E-008	-2.09108E-007	1.18649E-007	-3.49000E-001	3.95539E-004	6	..........a	-327.68
	14	1.5	-2.97028E-001	-3.46970E-001	-3.21999E-001	-8.75896E-008	-2.04594E-007	1.17005E-007	-3.47000E-001	3.99373E-004	6	..........a	-327.68
	15	1.6	-2.94944E-001	-3.45122E-001	-3.20033E-001	-8.48242E-008	-2.00243E-007	1.15419E-007	-3.45000E-001	4.06706E-004	6	..........a	-327.68
	16	1.7	-2.93070E-001	-3.42982E-001	-3.18026E-001	-8.21482E-008	-1.95763E-007	1.13614E-007	-3.43000E-001	4.05039E-004	6	..........a	-327.68
	17	1.8	-2.90876E-001	-3.41045E-001	-3.15960E-001	-7.94979E-008	-1.91532E-007	1.12034E-007	-3.41000E-001	4.00706E-004	6	..........a	-327.68
	18	1.9	-2.89066E-001	-3.38893E-001	-3.13980E-001	-7.69999E-008	-1.87388E-007	1.10388E-007	-3.39000E-001	3.96206E-004	6	..........a	-327.68
	19	2	-2.86893E-001	-3.37070E-001	-3.11981E-001	-7.43005E-008	-1.83159E-007	1.08858E-007	-3.37000E-001	4.10706E-004	6	..........a	-327.68
	20	2.1	-2.85065E-001	-3.34946E-001	-3.10005E-001	-7.17275E-008	-1.79298E-007	1.07570E-007	-3.35000E-001	3.99206E-004	6	..........a	-327.68
	21	2.2	-2.82904E-001	-3.33058E-001	-3.07981E-001	-6.91355E-008	-1.75283E-007	1.06148E-007	-3.33000E-001	3.95873E-004	6	..........a	-327.68
	22	2.3	-2.81090E-001	-3.30931E-001	-3.06011E-001	-6.68389E-008	-1.71329E-007	1.04490E-007	-3.31000E-001	4.09039E-004	6	..........a	-327.68
	23	2.4	-2.78931E-001	-3.29077E-001	-3.04004E-001	-6.46556E-008	-1.67764E-007	1.03108E-007	-3.29000E-001	4.13873E-004	6	..........a	-327.68
	24	2.5	-2.77014E-001	-3.26952E-001	-3.01983E-001	-6.21400E-008	-1.63871E-007	1.01731E-007	-3.27000E-001	4.05206E-004	6	..........a	-327.68
	25	2.6	-2.74948E-001	-3.25010E-001	-2.99979E-001	-5.97174E-008	-1.60249E-007	1.00531E-007	-3.25000E-001	3.95539E-004	6	..........a	-327.68
	26	2.7	-2.72999E-001	-3.22959E-001	-2.97979E-001	-5.77498E-008	-1.56578E-007	9.88286E-008	-3.23000E-001	3.96039E-004	6	..........a	-327.68
	27	2.8	-2.70946E-001	-3.20999E-001	-2.95973E-001	-5.54701E-008	-1.53130E-007	9.76598E-008	-3.21000E-001	3.89039E-004	6	..........a	-327.68
	28	2.9	-2.68986E-001	-3.18913E-001	-2.93950E-001	-5.33835E-008	-1.49829E-007	9.64453E-008	-3.19000E-001	3.97873E-004	6	..........a	-327.68
	29	3	-2.66861E-001	-3.17095E-001	-2.91978E-001	-5.11979E-008	-1.46711E-007	9.55131E-008	-3.17000E-001	4.03873E-004	6	..........a	-327.68
	30	3.1	-2.65108E-001	-3.14913E-001	-2.90011E-001	-4.90180E-008	-1.43601E-007	9.45830E-008	-3.15000E-001	4.06873E-004	6	..........a	-327.68
	31	3.2	-2.62902E-001	-3.13088E-001	-2.87995E-001	-4.70861E-008	-1.40020E-007	9.29338E-008	-3.13000E-001	3.98373E-004	6	..........a	-327.68
	32	3.3	-2.61075E-001	-3.10965E-001	-2.86020E-001	-4.51932E-008	-1.37010E-007	9.18170E-008	-3.11000E-001	4.00706E-004	6	..........a	-327.68
	33	3.4	-2.58898E-001	-3.09049E-001	-2.83973E-001	-4.31606E-008	-1.34067E-007	9.09062E-008	-3.09000E-001	3.98206E-004	6	..........a	-327.68
	34	3.5	-2.57063E-001	-3.06930E-001	-2.81996E-001	-4.12897E-008	-1.31005E-007	8.97151E-008	-3.07000E-001	3.96039E-004	6	..........a	-327.68
	35	3.6	-2.54976E-001	-3.05076E-001	-2.80026E-001	-3.95304E-008	-1.27926E-007	8.83956E-008	-3.05000E-001	4.01873E-004	6	..........a	-327.68
	36	3.7	-2.53060E-001	-3.02994E-001	-2.78027E-001	-3.78116E-008	-1.25168E-007	8.73564E-008	-3.03000E-001	4.05706E-004	6	..........a	-327.68
	37	3.8	-2.50932E-001	-3.01069E-001	-2.76001E-001	-3.59783E-008	-1.22509E-007	8.65307E-008	-3.01000E-001	4.06039E-004	6	..........a	-327.68
	38	3.9	-2.49031E-001	-2.98960E-001	-2.73995E-001	-3.44115E-008	-1.19812E-007	8.54002E-008	-2.99000E-001	4.02706E-004	6	..........a	-327.68
	39	4	-2.46962E-001	-2.97027E-001	-2.71994E-001	-3.24802E-008	-1.17153E-007	8.46728E-008	-2.97000E-001	3.96206E-004	6	..........a	-327.68
	40	4.1	-2.44988E-001	-2.94937E-001	-2.69963E-001	-3.09657E-008	-1.14481E-007	8.35156E-008	-2.95000E-001	3.98873E-004	6	..........a	-327.68
	41	4.2	-2.42866E-001	-2.93088E-001	-2.67977E-001	-2.91988E-008	-1.12127E-007	8.29286E-008	-2.93000E-001	3.99539E-004	6	..........a	-327.68
	42	4.3	-2.41116E-001	-2.90897E-001	-2.66006E-001	-2.77950E-008	-1.09605E-007	8.18101E-008	-2.91000E-001	4.09373E-004	6	..........a	-327.68
	43	4.4	-2.38941E-001	-2.89076E-001	-2.64008E-001	-2.64328E-008	-1.07149E-007	8.07163E-008	-2.89000E-001	4.11373E-004	6	..........a	-327.68
	44	4.5	-2.37012E-001	-2.86916E-001	-2.61964E-001	-2.47916E-008	-1.04789E-007	7.99975E-008	-2.87000E-001	3.95706E-004	6	..........a	-327.68
	45	4.6	-2.34870E-001	-2.85052E-001	-2.59961E-001	-2.33444E-008	-1.02428E-007	7.90837E-008	-2.85000E-001	4.05039E-004	6	..........a	-327.68
	46	4.7	-2.33070E-001	-2.82926E-001	-2.57998E-001	-2.19142E-008	-1.00333E-007	7.84183E-008	-2.83000E-001	4.02206E-004	6	..........a	-327.68
	47	4.8	-2.30932E-001	-2.81108E-001	-2.56020E-001	-2.07151E-008	-9.81682E-008	7.74532E-008	-2.81000E-001	4.04873E-004	6	..........a	-327.68
	48	4.9	-2.29074E-001	-2.78988E-001	-2.54031E-001	-1.91195E-008	-9.62003E-008	7.70808E-008	-2.79000E-001	4.11706E-004	6	..........a	-327.68
	49	5	-2.26920E-001	-2.77076E-001	-2.51998E-001	-1.79187E-008	-9.37900E-008	7.58713E-008	-2.77000E-001	4.05206E-004	6	..........a	-327.68
	50	5.1	-2.25045E-001	-2.74942E-001	-2.49993E-001	-1.67049E-008	-9.18758E-008	7.51709E-008	-2.75000E-001	3.94373E-004	6	..........a	-327.68
	51	5.2	-2.22938E-001	-2.73044E-001	-2.47991E-001	-1.55737E-008	-8.96628E-008	7.40891E-008	-2.73000E-001	4.12206E-004	6	..........a	-327.68
	52	5.3	-2.21003E-001	-2.70986E-001	-2.45995E-001	-1.44889E-008	-8.77002E-008	7.32113E-008	-2.71000E-001	3.98706E-004	6	..........a	-327.68
	53	5.4	-2.18948E-001	-2.69022E-001	-2.43985E-001	-1.32554E-008	-8.57953E-008	7.25399E-008	-2.69000E-001	4.09539E-004	6	..........a	-327.68
	54	5.5	-2.17126E-001	-2.66852E-001	-2.41989E-001	-1.20586E-008	-8.39424E-008	7.18838E-008	-2.67000E-001	4.06873E-004	6	..........a	-327.68
	55	5.6	-2.14945E-001	-2.65113E-001	-2.40029E-001	-1.09501E-008	-8.20125E-008	7.10624E-008	-2.65000E-001	4.11206E-004	6	..........a	-327.68
	56	5.7	-2.13017E-001	-2.62891E-001	-2.37954E-001	-1.00757E-008	-8.03060E-008	7.02303E-008	-2.63000E-001	4.11373E-004	6	..........a	-327.68
	57	5.8	-2.10889E-001	-2.61061E-001	-2.35975E-001	-9.01790E-009	-7.83457E-008	6.93278E-008	-2.61000E-001	4.19206E-004	6	..........a	-327.68
	58	5.9	-2.09049E-001	-2.58903E-001	-2.33976E-001	-7.86875E-009	-7.65355E-008	6.86667E-008	-2.59000E-001	4.13373E-004	6	..........a	-327.68
	59	6	-2.06943E-001	-2.57069E-001	-2.32006E-001	-7.00331E-009	-7.49740E-008	6.79706E-008	-2.57000E-001	4.15206E-004	6	..........a	-327.68
	60	6.1	-2.05041E-001	-2.54959E-001	-2.30000E-001	-5.87050E-009	-7.33137E-008	6.74432E-008	-2.55000E-001	4.11873E-004	6	..........a	-327.68
	61	6.2	-2.02914E-001	-2.53064E-001	-2.27989E-001	-5.01806E-009	-7.15969E-008	6.65788E-008	-2.53000E-001	4.21873E-004	6	..........a	-327.68
	62	6.3	-2.01074E-001	-2.50944E-001	-2.26009E-001	-3.95059E-009	-7.01067E-008	6.61561E-008	-2.51000E-001	4.07873E-004	6	..........a	-327.68
	63	6.4	-1.98987E-001	-2.49008E-001	-2.23997E-001	-3.10548E-009	-6.85361E-008	6.54307E-008	-2.49000E-001	4.12539E-004	6	..........a	-327.68
	64	6.5	-1.97033E-001	-2.46921E-001	-2.21977E-001	-2.16669E-009	-6.68416E-008	6.46749E-008	-2.47000E-001	4.15539E-004	6	..........a	-327.68
	65	6.6	-1.94955E-001	-2.44965E-001	-2.19960E-001	-1.14523E-009	-6.54261E-008	6.42808E-008	-2.45000E-001	4.16539E-004	6	..........a	-327.68
	66	6.7	-1.93009E-001	-2.42880E-001	-2.17945E-001	-5.33818E-010	-6.39386E-008	6.34047E-008	-2.43000E-001	4.12539E-004	6	..........a	-327.68
	67	6.8	-1.90993E-001	-2.41109E-001	-2.16051E-001	2.36947E-010	-6.26787E-008	6.29157E-008	-2.41000E-001	4.21206E-004	6	..........a	-327.68
	68	6.9	-1.89097E-001	-2.38900E-001	-2.13998E-001	1.07639E-009	-6.11535E-008	6.22299E-008	-2.39000E-001	4.12206E-004	6	..........a	-327.68
	69	7	-1.86875E-001	-2.36982E-001	-2.11928E-001	1.86449E-009	-5.98017E-008	6.16662E-008	-2.37000E-001	4.08206E-004	6	..........a	-327.68
	70	7.1	-1.85071E-001	-2.34912E-001	-2.09992E-001	2.73593E-009	-5.84332E-008	6.11691E-008	-2.35000E-001	4.14873E-004	6	..........a	-327.68
	71	7.2	-1.82947E-001	-2.33036E-001	-2.07991E-001	3.23799E-009	-5.74117E-008	6.06497E-008	-2.33000E-001	4.10373E-004	6	..........a	-327.68
	72	7.3	-1.81077E-001	-2.30906E-001	-2.05991E-001	4.02010E-009	-5.59235E-008	5.99436E-008	-2.31000E-001	4.23706E-004	6	..........a	-327.68
	73	7.4	-1.78911E-001	-2.29036E-001	-2.03973E-001	4.76319E-009	-5.48367E-008	5.95999E-008	-2.29000E-001	4.13206E-004	6	..........a	-327.68
	74	7.5	-1.77077E-001	-2.26934E-001	-2.02005E-001	5.31226E-009	-5.35619E-008	5.88742E-008	-2.27000E-001	4.06873E-004	6	..........a	-327.68
	75	7.6	-1.74996E-001	-2.25033E-001	-2.00014E-001	5.93667E-009	-5.23641E-008	5.83008E-008	-2.25000E-001	4.11039E-004	6	..........a	-327.68
	76	7.7	-1.73068E-001	-2.22931E-001	-1.97999E-001	6.56942E-009	-5.12636E-008	5.78330E-008	-2.23000E-001	4.13539E-004	6	..........a	-327.68
	77	7.8	-1.70940E-001	-2.20993E-001	-1.95966E-001	7.33552E-009	-5.03495E-008	5.76850E-008	-2.21000E-001	4.04706E-004	6	..........a	-327.68
	78	7.9	-1.69057E-001	-2.18965E-001	-1.94011E-001	7.85258E-009	-4.92327E-008	5.70853E-008	-2.19000E-001	4.10706E-004	6	..........a	-327.68
	79	8	-1.66984E-001	-2.17118E-001	-1.92051E-001	8.56067E-009	-4.81185E-008	5.66792E-008	-2.17000E-001	4.12373E-004	6	..........a	-327.68
	80	8.1	-1.64970E-001	-2.14893E-001	-1.89931E-001	9.10974E-009	-4.72654E-008	5.63752E-008	-2.15000E-001	4.05206E-004	6	..........a	-327.68
	81	8.2	-1.62853E-001	-2.13023E-001	-1.87938E-001	9.72215E-009	-4.60946E-008	5.58168E-008	-2.13000E-001	4.06706E-004	6	..........a	-327.68
	82	8.3	-1.61053E-001	-2.10937E-001	-1.85995E-001	1.03799E-008	-4.52438E-008	5.56237E-008	-2.11000E-001	4.06706E-004	6	..........a	-327.68
	83	8.4	-1.58969E-001	-2.09061E-001	-1.84015E-001	1.10020E-008	-4.43224E-008	5.53244E-008	-2.09000E-001	4.09206E-004	6	..........a	-327.68
	84	8.5	-1.57066E-001	-2.06918E-001	-1.81992E-001	1.15257E-008	-4.33626E-008	5.48883E-008	-2.07000E-001	4.14039E-004	6	..........a	-327.68
	85	8.6	-1.54895E-001	-2.05054E-001	-1.79974E-001	1.19354E-008	-4.26282E-008	5.45636E-008	-2.05000E-001	4.10873E-004	6	..........a	-327.68
	86	8.7	-1.53098E-001	-2.02922E-001	-1.78010E-001	1.25615E-008	-4.16751E-008	5.42366E-008	-2.03000E-001	4.18539E-004	6	..........a	-327.68
	87	8.8	-1.50993E-001	-2.01066E-001	-1.76030E-001	1.32906E-008	-4.09503E-008	5.42409E-008	-2.01000E-001	4.11873E-004	6	..........a	-327.68
	88	8.9	-1.49070E-001	-1.98966E-001	-1.74018E-001	1.36337E-008	-4.00112E-008	5.36448E-008	-1.99000E-001	4.04373E-004	6	..........a	-327.68
	89	9	-1.46931E-001	-1.97023E-001	-1.71977E-001	1.42867E-008	-3.92247E-008	5.35115E-008	-1.97000E-001	4.10206E-004	6	..........a	-327.68
	90	9.1	-1.45043E-001	-1.94946E-001	-1.69994E-001	1.47601E-008	-3.84483E-008	5.32084E-008	-1.95000E-001	4.04039E-004	6	..........a	-327.68
	91	9.2	-1.42983E-001	-1.93012E-001	-1.67998E-001	1.51315E-008	-3.76752E-008	5.28067E-008	-1.93000E-001	4.09706E-004	6	..........a	-327.68
	92	9.3	-1.41031E-001	-1.91035E-001	-1.66033E-001	1.59759E-008	-3.67564E-008	5.27324E-008	-1.91000E-001	4.18539E-004	6	..........a	-327.68
	93	9.4	-1.38832E-001	-1.89066E-001	-1.63949E-001	1.60980E-008	-3.61857E-008	5.22836E-008	-1.89000E-001	4.16539E-004	6	..........a	-327.68
	94	9.5	-1.37105E-001	-1.86876E-001	-1.61990E-001	1.68554E-008	-3.53272E-008	5.21826E-008	-1.87000E-001	4.11373E-004	6	..........a	-327.68
	95	9.6	-1.34955E-001	-1.85069E-001	-1.60012E-001	1.71404E-008	-3.49369E-008	5.20773E-008	-1.85000E-001	4.07539E-004	6	..........a	-327.68
	96	9.7	-1.33049E-001	-1.82945E-001	-1.57997E-001	1.75772E-008	-3.44748E-008	5.20520E-008	-1.83000E-001	4.08706E-004	6	..........a	-327.68
	97	9.8	-1.30888E-001	-1.81059E-001	-1.55973E-001	1.79839E-008	-3.34050E-008	5.13889E-008	-1.81000E-001	4.05373E-004	6	..........a	-327.68
	98	9.9	-1.29071E-001	-1.78904E-001	-1.53987E-001	1.84776E-008	-3.29273E-008	5.14049E-008	-1.79000E-001	4.19039E-004	6	..........a	-327.68
	99	10	-1.26985E-001	-1.77067E-001	-1.52026E-001	1.86616E-008	-3.25416E-008	5.12032E-008	-1.77000E-001	4.10873E-004	6	..........a	-327.68
	100	10.1	-1.25069E-001	-1.74983E-001	-1.50026E-001	1.92180E-008	-3.18575E-008	5.10755E-008	-1.75000E-001	4.04706E-004	6	..........a	-327.68