File: C-COM1/SWV_10Hz STD1 aptmch 081020_#2.DTA
EXPLAIN
TAG	SQUARE_WAVE
TITLE	LABEL	Square Wave Voltammetry	Test Identifier
DATE	LABEL	8/10/2020	Date
TIME	LABEL	12:46:32	Time
NOTES	NOTES	1	Notes...
	 STD1 aptmch 08102
PSTAT	PSTAT	REF600-24079	Potentiostat
VINIT	QUANT	-3.50000E-001	Initial E (V)
VFINAL	QUANT	-1.50000E-001	Final E (V)
STEPSIZE	QUANT	2.00000E+000	Step Size (mV)
TIMERRES	QUANT	3.33340E-005	&Timer Resolution
FREQUENCY	QUANT	1.00000E+001	Frequency (Hz)
PULSESIZE	QUANT	2.50000E+001	Pulse Size E (mV)
PULSEON	QUANT	1.00000E-001	Pulse &Time (s)
NOISEREJECT	TOGGLE	F	Noise Rejection
AREA	QUANT	2.00000E-002	Sample Area (cm^2)
IMODE	SELECTOR	1	I/E Range Mode
IRANGE	QUANT	1.00000E-003	Max Current (mA)
EQDELAY	IQUANT	10	Equil. Time (s)
IRCOMP	SELECTOR	0	IRComp
PFCOR	QUANT	5.00000E+001	PF Corr. (ohm)
CYCLES	IQUANT	101	C&ycles (#)
ELECTRODETYPE	SELECTOR	0	Electrode Type
STRIPPING	TOGGLE	F	Used for Stripping
POLARITY	TOGGLE	F	Signal Polarity
LINEFREQ	IQUANT	60	Line Frequency (Hz)
INTPERIOD	QUANT	3.3334E-005	Integration Period (s)
SEQUENCER	TOGGLE	TRUE	Run as Sequence
PSTATMODEL	IQUANT	4	Pstat Model
PSTATSECTION	LABEL	REF600-24079	Pstat Section
PSTATSERIALNO	LABEL	24079	Pstat Serial Number
CTRLMODE	IQUANT	1	Control Mode
ELECTROMETER	IQUANT	0	RE=0 or CS=1
IESTAB	IQUANT	2	I/E Stability
CASPEED	IQUANT	6	Control Amp Speed
CONVENTION	IQUANT	1	Current Convention
ICHRANGE	IQUANT	2	Ich Range
ICHRANGEMODE	TOGGLE	F	Ich Auto Range
ICHOFFSETENABLE	TOGGLE	F	Ich Offset Enable
ICHOFFSET	QUANT	0	Ich Offset (V)
ICHFILTER	IQUANT	2	Ich Filter
VCHRANGE	IQUANT	2	Vch Range
VCHRANGEMODE	TOGGLE	F	Vch Auto Range
VCHOFFSETENABLE	TOGGLE	F	Vch Offset Enable
VCHOFFSET	QUANT	0	Vch Offset (V)
VCHFILTER	IQUANT	2	Vch Filter
ACHRANGE	IQUANT	2	Ach Range
ACHOFFSETENABLE	TOGGLE	F	Ach Offset Enable
ACHOFFSET	QUANT	0	Ach Offset (V)
ACHFILTER	IQUANT	1	Ach Filter
IERANGELOWERLIMIT	IQUANT	1	I/E Range Lower Limit
IERANGEMODE	TOGGLE	F	I/E AutoRange
IERANGE	IQUANT	6	I/E Range
POSFEEDENABLE	TOGGLE	F	Positive Feedback IR Comp
POSFEEDRESISTANCE	QUANT	0	Positive Feedback Resistance (ohm)
ACHSELECT	IQUANT	0	Ach Select
SENSECABLEID	IQUANT	13	Sense Cable ID
PWRCABLEID	IQUANT	13	Power Cable ID
DCCALDATE	LABEL	6/30/2020	DC Calibration Date
ACCALDATE	LABEL	6/30/2020	AC Calibration Date
THERMOSELECT	IQUANT	1	Thermo Select
FRAMEWORKVERSION	LABEL	7.8.2	Framework Version
INSTRUMENTVERSION	LABEL	4.40	Instrument Version
CURVE	TABLE	101
	Pt	T	Vfwd	Vrev	Vstep	Ifwd	Irev	Idif	Sig	Ach	IERange	Over	Temp
	#	s	V	V	V	A	A	A	V	V	#	bits	deg C
	0	0.1	-3.24947E-001	-3.74907E-001	-3.49927E-001	-1.19633E-008	-4.21441E-008	3.01808E-008	-3.75000E-001	4.16206E-004	6	..........a	-327.68
	1	0.2	-3.22903E-001	-3.72971E-001	-3.47937E-001	-1.22099E-010	-3.72068E-008	3.70847E-008	-3.73000E-001	3.97539E-004	6	..........a	-327.68
	2	0.3	-3.20953E-001	-3.70813E-001	-3.45883E-001	2.12385E-009	-3.51939E-008	3.73177E-008	-3.71000E-001	3.97539E-004	6	..........a	-327.68
	3	0.4	-3.18904E-001	-3.69080E-001	-3.43992E-001	3.25300E-009	-3.41534E-008	3.74064E-008	-3.69000E-001	4.03039E-004	6	..........a	-327.68
	4	0.5	-3.16980E-001	-3.66922E-001	-3.41951E-001	4.16345E-009	-3.30936E-008	3.72571E-008	-3.67000E-001	4.03873E-004	6	..........a	-327.68
	5	0.6	-3.14889E-001	-3.64967E-001	-3.39928E-001	4.73185E-009	-3.22195E-008	3.69514E-008	-3.65000E-001	3.91706E-004	6	..........a	-327.68
	6	0.7	-3.13014E-001	-3.62832E-001	-3.37923E-001	5.34193E-009	-3.16771E-008	3.70190E-008	-3.63000E-001	4.10873E-004	6	..........a	-327.68
	7	0.8	-3.10887E-001	-3.60998E-001	-3.35942E-001	5.82632E-009	-3.10537E-008	3.68800E-008	-3.61000E-001	4.03539E-004	6	..........a	-327.68
	8	0.9	-3.08982E-001	-3.58888E-001	-3.33935E-001	6.18570E-009	-3.04466E-008	3.66323E-008	-3.59000E-001	3.94206E-004	6	..........a	-327.68
	9	1	-3.06872E-001	-3.57000E-001	-3.31936E-001	6.63043E-009	-3.02603E-008	3.68907E-008	-3.57000E-001	4.04706E-004	6	..........a	-327.68
	10	1.1	-3.05021E-001	-3.54880E-001	-3.29950E-001	7.13749E-009	-2.98029E-008	3.69404E-008	-3.55000E-001	4.06873E-004	6	..........a	-327.68
	11	1.2	-3.02945E-001	-3.52986E-001	-3.27966E-001	7.59555E-009	-2.91198E-008	3.67153E-008	-3.53000E-001	4.00539E-004	6	..........a	-327.68
	12	1.3	-3.01016E-001	-3.50904E-001	-3.25960E-001	8.06294E-009	-2.89494E-008	3.70124E-008	-3.51000E-001	3.91039E-004	6	..........a	-327.68
	13	1.4	-2.98907E-001	-3.48948E-001	-3.23927E-001	8.36631E-009	-2.85007E-008	3.68670E-008	-3.49000E-001	4.06373E-004	6	..........a	-327.68
	14	1.5	-2.96987E-001	-3.46905E-001	-3.21946E-001	8.56367E-009	-2.83167E-008	3.68804E-008	-3.47000E-001	4.03206E-004	6	..........a	-327.68
	15	1.6	-2.94940E-001	-3.45098E-001	-3.20019E-001	9.08074E-009	-2.79176E-008	3.69984E-008	-3.45000E-001	3.81539E-004	6	..........a	-327.68
	16	1.7	-2.92845E-001	-3.42915E-001	-3.17880E-001	9.52246E-009	-2.78453E-008	3.73678E-008	-3.43000E-001	3.94873E-004	6	..........a	-327.68
	17	1.8	-2.90828E-001	-3.40971E-001	-3.15899E-001	1.00345E-008	-2.74856E-008	3.75201E-008	-3.41000E-001	3.99373E-004	6	..........a	-327.68
	18	1.9	-2.89015E-001	-3.38827E-001	-3.13921E-001	1.05413E-008	-2.73276E-008	3.78688E-008	-3.39000E-001	3.91873E-004	6	..........a	-327.68
	19	2	-2.86933E-001	-3.37006E-001	-3.11970E-001	1.08656E-008	-2.71319E-008	3.79975E-008	-3.37000E-001	4.03039E-004	6	..........a	-327.68
	20	2.1	-2.84962E-001	-3.34896E-001	-3.09929E-001	1.14504E-008	-2.69795E-008	3.84299E-008	-3.35000E-001	3.95039E-004	6	..........a	-327.68
	21	2.2	-2.82858E-001	-3.32975E-001	-3.07916E-001	1.18494E-008	-2.69022E-008	3.87516E-008	-3.33000E-001	4.00373E-004	6	..........a	-327.68
	22	2.3	-2.81055E-001	-3.30872E-001	-3.05964E-001	1.23178E-008	-2.66365E-008	3.89543E-008	-3.31000E-001	4.01039E-004	6	..........a	-327.68
	23	2.4	-2.78941E-001	-3.28999E-001	-3.03970E-001	1.27152E-008	-2.65535E-008	3.92687E-008	-3.29000E-001	4.09206E-004	6	..........a	-327.68
	24	2.5	-2.77000E-001	-3.26920E-001	-3.01960E-001	1.34463E-008	-2.65698E-008	4.00161E-008	-3.27000E-001	4.16873E-004	6	..........a	-327.68
	25	2.6	-2.74893E-001	-3.24967E-001	-2.99930E-001	1.37083E-008	-2.66761E-008	4.03845E-008	-3.25000E-001	3.93206E-004	6	..........a	-327.68
	26	2.7	-2.72986E-001	-3.22906E-001	-2.97946E-001	1.42124E-008	-2.66765E-008	4.08889E-008	-3.23000E-001	4.05706E-004	6	..........a	-327.68
	27	2.8	-2.70945E-001	-3.20940E-001	-2.95942E-001	1.46815E-008	-2.66678E-008	4.13493E-008	-3.21000E-001	4.03539E-004	6	..........a	-327.68
	28	2.9	-2.68980E-001	-3.18885E-001	-2.93932E-001	1.51575E-008	-2.68878E-008	4.20454E-008	-3.19000E-001	3.96373E-004	6	..........a	-327.68
	29	3	-2.66810E-001	-3.16969E-001	-2.91890E-001	1.56696E-008	-2.70582E-008	4.27278E-008	-3.17000E-001	4.06039E-004	6	..........a	-327.68
	30	3.1	-2.65058E-001	-3.14861E-001	-2.89959E-001	1.59809E-008	-2.69312E-008	4.29121E-008	-3.15000E-001	4.06039E-004	6	..........a	-327.68
	31	3.2	-2.62937E-001	-3.12992E-001	-2.87964E-001	1.63913E-008	-2.69508E-008	4.33422E-008	-3.13000E-001	4.01706E-004	6	..........a	-327.68
	32	3.3	-2.60932E-001	-3.10873E-001	-2.85903E-001	1.65033E-008	-2.71785E-008	4.36819E-008	-3.11000E-001	3.99873E-004	6	..........a	-327.68
	33	3.4	-2.58845E-001	-3.08966E-001	-2.83906E-001	1.67871E-008	-2.73992E-008	4.41863E-008	-3.09000E-001	3.91373E-004	6	..........a	-327.68
	34	3.5	-2.56982E-001	-3.06871E-001	-2.81927E-001	1.72644E-008	-2.75813E-008	4.48457E-008	-3.07000E-001	4.01206E-004	6	..........a	-327.68
	35	3.6	-2.54969E-001	-3.05019E-001	-2.79994E-001	1.73578E-008	-2.74882E-008	4.48460E-008	-3.05000E-001	3.99706E-004	6	..........a	-327.68
	36	3.7	-2.53007E-001	-3.02925E-001	-2.77966E-001	1.75185E-008	-2.76096E-008	4.51281E-008	-3.03000E-001	4.03873E-004	6	..........a	-327.68
	37	3.8	-2.50899E-001	-3.01002E-001	-2.75950E-001	1.75275E-008	-2.77136E-008	4.52411E-008	-3.01000E-001	3.97206E-004	6	..........a	-327.68
	38	3.9	-2.48994E-001	-2.98899E-001	-2.73947E-001	1.76925E-008	-2.78650E-008	4.55575E-008	-2.99000E-001	3.96373E-004	6	..........a	-327.68
	39	4	-2.46936E-001	-2.96962E-001	-2.71949E-001	1.76742E-008	-2.78176E-008	4.54918E-008	-2.97000E-001	3.96706E-004	6	..........a	-327.68
	40	4.1	-2.44976E-001	-2.94901E-001	-2.69939E-001	1.77815E-008	-2.78393E-008	4.56208E-008	-2.95000E-001	3.97373E-004	6	..........a	-327.68
	41	4.2	-2.42822E-001	-2.92888E-001	-2.67855E-001	1.75685E-008	-2.79080E-008	4.54765E-008	-2.93000E-001	3.93373E-004	6	..........a	-327.68
	42	4.3	-2.41034E-001	-2.90815E-001	-2.65924E-001	1.76672E-008	-2.77376E-008	4.54048E-008	-2.91000E-001	3.93206E-004	6	..........a	-327.68
	43	4.4	-2.38959E-001	-2.88992E-001	-2.63975E-001	1.75251E-008	-2.75913E-008	4.51164E-008	-2.89000E-001	3.88539E-004	6	..........a	-327.68
	44	4.5	-2.36978E-001	-2.86886E-001	-2.61932E-001	1.74291E-008	-2.74279E-008	4.48570E-008	-2.87000E-001	3.99706E-004	6	..........a	-327.68
	45	4.6	-2.34833E-001	-2.84986E-001	-2.59910E-001	1.72431E-008	-2.72275E-008	4.44707E-008	-2.85000E-001	3.93706E-004	6	..........a	-327.68
	46	4.7	-2.32979E-001	-2.82857E-001	-2.57918E-001	1.71284E-008	-2.72175E-008	4.43460E-008	-2.83000E-001	3.95373E-004	6	..........a	-327.68
	47	4.8	-2.30923E-001	-2.81055E-001	-2.55989E-001	1.69924E-008	-2.67335E-008	4.37259E-008	-2.81000E-001	3.96539E-004	6	..........a	-327.68
	48	4.9	-2.28971E-001	-2.78925E-001	-2.53948E-001	1.68311E-008	-2.62308E-008	4.30618E-008	-2.79000E-001	3.94539E-004	6	..........a	-327.68
	49	5	-2.26868E-001	-2.76985E-001	-2.51927E-001	1.66474E-008	-2.60171E-008	4.26644E-008	-2.77000E-001	4.00539E-004	6	..........a	-327.68
	50	5.1	-2.24985E-001	-2.74894E-001	-2.49940E-001	1.63983E-008	-2.57627E-008	4.21610E-008	-2.75000E-001	3.91873E-004	6	..........a	-327.68
	51	5.2	-2.22930E-001	-2.72942E-001	-2.47936E-001	1.62587E-008	-2.52896E-008	4.15483E-008	-2.73000E-001	3.99206E-004	6	..........a	-327.68
	52	5.3	-2.20974E-001	-2.70918E-001	-2.45946E-001	1.60740E-008	-2.48946E-008	4.09685E-008	-2.71000E-001	3.85539E-004	6	..........a	-327.68
	53	5.4	-2.18901E-001	-2.68946E-001	-2.43923E-001	1.58613E-008	-2.44869E-008	4.03481E-008	-2.69000E-001	3.90706E-004	6	..........a	-327.68
	54	5.5	-2.17064E-001	-2.66805E-001	-2.41934E-001	1.58033E-008	-2.42308E-008	4.00341E-008	-2.67000E-001	3.98039E-004	6	..........a	-327.68
	55	5.6	-2.14948E-001	-2.65068E-001	-2.40008E-001	1.54342E-008	-2.36874E-008	3.91216E-008	-2.65000E-001	4.08039E-004	6	..........a	-327.68
	56	5.7	-2.12927E-001	-2.62904E-001	-2.37915E-001	1.54392E-008	-2.32874E-008	3.87266E-008	-2.63000E-001	3.99873E-004	6	..........a	-327.68
	57	5.8	-2.10834E-001	-2.60996E-001	-2.35915E-001	1.54679E-008	-2.27730E-008	3.82409E-008	-2.61000E-001	3.99706E-004	6	..........a	-327.68
	58	5.9	-2.09000E-001	-2.58840E-001	-2.33920E-001	1.51992E-008	-2.23786E-008	3.75778E-008	-2.59000E-001	4.01039E-004	6	..........a	-327.68
	59	6	-2.06922E-001	-2.56989E-001	-2.31955E-001	1.52322E-008	-2.19242E-008	3.71564E-008	-2.57000E-001	4.12873E-004	6	..........a	-327.68
	60	6.1	-2.04956E-001	-2.54922E-001	-2.29939E-001	1.50648E-008	-2.15498E-008	3.66147E-008	-2.55000E-001	4.09206E-004	6	..........a	-327.68
	61	6.2	-2.02880E-001	-2.53014E-001	-2.27947E-001	1.48625E-008	-2.11291E-008	3.59916E-008	-2.53000E-001	3.96873E-004	6	..........a	-327.68
	62	6.3	-2.01028E-001	-2.50888E-001	-2.25958E-001	1.47248E-008	-2.08321E-008	3.55569E-008	-2.51000E-001	3.96873E-004	6	..........a	-327.68
	63	6.4	-1.98963E-001	-2.48988E-001	-2.23975E-001	1.46761E-008	-2.02813E-008	3.49574E-008	-2.49000E-001	4.11206E-004	6	..........a	-327.68
	64	6.5	-1.96991E-001	-2.46916E-001	-2.21954E-001	1.46868E-008	-1.98989E-008	3.45857E-008	-2.47000E-001	3.94706E-004	6	..........a	-327.68
	65	6.6	-1.94914E-001	-2.44942E-001	-2.19928E-001	1.45291E-008	-1.94562E-008	3.39853E-008	-2.45000E-001	4.05373E-004	6	..........a	-327.68
	66	6.7	-1.92983E-001	-2.42814E-001	-2.17898E-001	1.46714E-008	-1.94912E-008	3.41627E-008	-2.43000E-001	4.05539E-004	6	..........a	-327.68
	67	6.8	-1.91024E-001	-2.41082E-001	-2.16053E-001	1.46421E-008	-1.89418E-008	3.35839E-008	-2.41000E-001	4.04039E-004	6	..........a	-327.68
	68	6.9	-1.88959E-001	-2.38896E-001	-2.13927E-001	1.44408E-008	-1.87725E-008	3.32132E-008	-2.39000E-001	4.00539E-004	6	..........a	-327.68
	69	7	-1.86839E-001	-2.36957E-001	-2.11898E-001	1.44444E-008	-1.82267E-008	3.26712E-008	-2.37000E-001	4.07873E-004	6	..........a	-327.68
	70	7.1	-1.85017E-001	-2.34830E-001	-2.09923E-001	1.45471E-008	-1.80020E-008	3.25491E-008	-2.35000E-001	4.00373E-004	6	..........a	-327.68
	71	7.2	-1.82911E-001	-2.33009E-001	-2.07960E-001	1.45098E-008	-1.78117E-008	3.23214E-008	-2.33000E-001	4.04539E-004	6	..........a	-327.68
	72	7.3	-1.80939E-001	-2.30876E-001	-2.05907E-001	1.45524E-008	-1.75520E-008	3.21044E-008	-2.31000E-001	3.95706E-004	6	..........a	-327.68
	73	7.4	-1.78867E-001	-2.28998E-001	-2.03932E-001	1.47411E-008	-1.73790E-008	3.21201E-008	-2.29000E-001	4.02373E-004	6	..........a	-327.68
	74	7.5	-1.77005E-001	-2.26884E-001	-2.01945E-001	1.46244E-008	-1.70703E-008	3.16947E-008	-2.27000E-001	4.07206E-004	6	..........a	-327.68
	75	7.6	-1.74959E-001	-2.24976E-001	-1.99967E-001	1.45478E-008	-1.67202E-008	3.12680E-008	-2.25000E-001	4.12873E-004	6	..........a	-327.68
	76	7.7	-1.72996E-001	-2.22908E-001	-1.97952E-001	1.46494E-008	-1.67225E-008	3.13720E-008	-2.23000E-001	4.08206E-004	6	..........a	-327.68
	77	7.8	-1.70898E-001	-2.20959E-001	-1.95928E-001	1.45648E-008	-1.64558E-008	3.10206E-008	-2.21000E-001	4.10206E-004	6	..........a	-327.68
	78	7.9	-1.68977E-001	-2.18910E-001	-1.93943E-001	1.47165E-008	-1.64388E-008	3.11553E-008	-2.19000E-001	3.97206E-004	6	..........a	-327.68
	79	8	-1.66950E-001	-2.17102E-001	-1.92026E-001	1.45501E-008	-1.61451E-008	3.06952E-008	-2.17000E-001	3.95206E-004	6	..........a	-327.68
	80	8.1	-1.64833E-001	-2.14907E-001	-1.89870E-001	1.47311E-008	-1.59174E-008	3.06486E-008	-2.15000E-001	3.98039E-004	6	..........a	-327.68
	81	8.2	-1.62814E-001	-2.12950E-001	-1.87882E-001	1.46554E-008	-1.57604E-008	3.04159E-008	-2.13000E-001	3.95373E-004	6	..........a	-327.68
	82	8.3	-1.61005E-001	-2.10833E-001	-1.85919E-001	1.49128E-008	-1.55434E-008	3.04562E-008	-2.11000E-001	4.00373E-004	6	..........a	-327.68
	83	8.4	-1.58924E-001	-2.08995E-001	-1.83959E-001	1.48265E-008	-1.55641E-008	3.03905E-008	-2.09000E-001	4.09873E-004	6	..........a	-327.68
	84	8.5	-1.56976E-001	-2.06883E-001	-1.81929E-001	1.48468E-008	-1.53694E-008	3.02162E-008	-2.07000E-001	4.11206E-004	6	..........a	-327.68
	85	8.6	-1.54841E-001	-2.04964E-001	-1.79902E-001	1.49738E-008	-1.52547E-008	3.02285E-008	-2.05000E-001	3.96373E-004	6	..........a	-327.68
	86	8.7	-1.53038E-001	-2.02868E-001	-1.77953E-001	1.49398E-008	-1.50267E-008	2.99665E-008	-2.03000E-001	4.10373E-004	6	..........a	-327.68
	87	8.8	-1.50953E-001	-2.01027E-001	-1.75990E-001	1.48338E-008	-1.50030E-008	2.98368E-008	-2.01000E-001	3.97539E-004	6	..........a	-327.68
	88	8.9	-1.49003E-001	-1.98926E-001	-1.73964E-001	1.51385E-008	-1.48286E-008	2.99671E-008	-1.99000E-001	3.91873E-004	6	..........a	-327.68
	89	9	-1.46892E-001	-1.96969E-001	-1.71931E-001	1.51638E-008	-1.46123E-008	2.97761E-008	-1.97000E-001	4.01039E-004	6	..........a	-327.68
	90	9.1	-1.44976E-001	-1.94898E-001	-1.69937E-001	1.53589E-008	-1.46559E-008	3.00148E-008	-1.95000E-001	4.07539E-004	6	..........a	-327.68
	91	9.2	-1.42954E-001	-1.92963E-001	-1.67958E-001	1.52152E-008	-1.45453E-008	2.97605E-008	-1.93000E-001	3.88206E-004	6	..........a	-327.68
	92	9.3	-1.40986E-001	-1.90887E-001	-1.65936E-001	1.53162E-008	-1.45886E-008	2.99048E-008	-1.91000E-001	3.88873E-004	6	..........a	-327.68
	93	9.4	-1.38807E-001	-1.88953E-001	-1.63880E-001	1.51732E-008	-1.44743E-008	2.96474E-008	-1.89000E-001	4.05039E-004	6	..........a	-327.68
	94	9.5	-1.37055E-001	-1.86828E-001	-1.61941E-001	1.53659E-008	-1.42199E-008	2.95858E-008	-1.87000E-001	4.05873E-004	6	..........a	-327.68
	95	9.6	-1.34937E-001	-1.85004E-001	-1.59971E-001	1.54082E-008	-1.40852E-008	2.94934E-008	-1.85000E-001	3.96373E-004	6	..........a	-327.68
	96	9.7	-1.32914E-001	-1.82883E-001	-1.57898E-001	1.56456E-008	-1.41445E-008	2.97901E-008	-1.83000E-001	4.00373E-004	6	..........a	-327.68
	97	9.8	-1.30837E-001	-1.80946E-001	-1.55892E-001	1.57569E-008	-1.40922E-008	2.98491E-008	-1.81000E-001	4.08206E-004	6	..........a	-327.68
	98	9.9	-1.28987E-001	-1.78868E-001	-1.53928E-001	1.58849E-008	-1.40029E-008	2.98878E-008	-1.79000E-001	4.05206E-004	6	..........a	-327.68
	99	10	-1.26947E-001	-1.77029E-001	-1.51988E-001	1.56999E-008	-1.38355E-008	2.95354E-008	-1.77000E-001	3.97706E-004	6	..........a	-327.68
	100	10.1	-1.24969E-001	-1.74924E-001	-1.49947E-001	1.56526E-008	-1.37942E-008	2.94467E-008	-1.75000E-001	4.05373E-004	6	..........a	-327.68