File: C-COM1/SWV_10Hz STD1 10  fgml 081020_#5.DTA
EXPLAIN
TAG	SQUARE_WAVE
TITLE	LABEL	Square Wave Voltammetry	Test Identifier
DATE	LABEL	8/10/2020	Date
TIME	LABEL	17:30:48	Time
NOTES	NOTES	1	Notes...
	 STD1, 10  fg/mL 08102
PSTAT	PSTAT	REF600-24079	Potentiostat
VINIT	QUANT	-3.50000E-001	Initial E (V)
VFINAL	QUANT	-1.50000E-001	Final E (V)
STEPSIZE	QUANT	2.00000E+000	Step Size (mV)
TIMERRES	QUANT	3.33340E-005	&Timer Resolution
FREQUENCY	QUANT	1.00000E+001	Frequency (Hz)
PULSESIZE	QUANT	2.50000E+001	Pulse Size E (mV)
PULSEON	QUANT	1.00000E-001	Pulse &Time (s)
NOISEREJECT	TOGGLE	F	Noise Rejection
AREA	QUANT	2.00000E-002	Sample Area (cm^2)
IMODE	SELECTOR	1	I/E Range Mode
IRANGE	QUANT	1.00000E-003	Max Current (mA)
EQDELAY	IQUANT	10	Equil. Time (s)
IRCOMP	SELECTOR	0	IRComp
PFCOR	QUANT	5.00000E+001	PF Corr. (ohm)
CYCLES	IQUANT	101	C&ycles (#)
ELECTRODETYPE	SELECTOR	0	Electrode Type
STRIPPING	TOGGLE	F	Used for Stripping
POLARITY	TOGGLE	F	Signal Polarity
LINEFREQ	IQUANT	60	Line Frequency (Hz)
INTPERIOD	QUANT	3.3334E-005	Integration Period (s)
SEQUENCER	TOGGLE	TRUE	Run as Sequence
PSTATMODEL	IQUANT	4	Pstat Model
PSTATSECTION	LABEL	REF600-24079	Pstat Section
PSTATSERIALNO	LABEL	24079	Pstat Serial Number
CTRLMODE	IQUANT	1	Control Mode
ELECTROMETER	IQUANT	0	RE=0 or CS=1
IESTAB	IQUANT	2	I/E Stability
CASPEED	IQUANT	6	Control Amp Speed
CONVENTION	IQUANT	1	Current Convention
ICHRANGE	IQUANT	2	Ich Range
ICHRANGEMODE	TOGGLE	F	Ich Auto Range
ICHOFFSETENABLE	TOGGLE	F	Ich Offset Enable
ICHOFFSET	QUANT	0	Ich Offset (V)
ICHFILTER	IQUANT	2	Ich Filter
VCHRANGE	IQUANT	2	Vch Range
VCHRANGEMODE	TOGGLE	F	Vch Auto Range
VCHOFFSETENABLE	TOGGLE	F	Vch Offset Enable
VCHOFFSET	QUANT	0	Vch Offset (V)
VCHFILTER	IQUANT	2	Vch Filter
ACHRANGE	IQUANT	2	Ach Range
ACHOFFSETENABLE	TOGGLE	F	Ach Offset Enable
ACHOFFSET	QUANT	0	Ach Offset (V)
ACHFILTER	IQUANT	1	Ach Filter
IERANGELOWERLIMIT	IQUANT	1	I/E Range Lower Limit
IERANGEMODE	TOGGLE	F	I/E AutoRange
IERANGE	IQUANT	6	I/E Range
POSFEEDENABLE	TOGGLE	F	Positive Feedback IR Comp
POSFEEDRESISTANCE	QUANT	0	Positive Feedback Resistance (ohm)
ACHSELECT	IQUANT	0	Ach Select
SENSECABLEID	IQUANT	13	Sense Cable ID
PWRCABLEID	IQUANT	13	Power Cable ID
DCCALDATE	LABEL	6/30/2020	DC Calibration Date
ACCALDATE	LABEL	6/30/2020	AC Calibration Date
THERMOSELECT	IQUANT	1	Thermo Select
FRAMEWORKVERSION	LABEL	7.8.2	Framework Version
INSTRUMENTVERSION	LABEL	4.40	Instrument Version
CURVE	TABLE	101
	Pt	T	Vfwd	Vrev	Vstep	Ifwd	Irev	Idif	Sig	Ach	IERange	Over	Temp
	#	s	V	V	V	A	A	A	V	V	#	bits	deg C
	0	0.1	-3.24989E-001	-3.74951E-001	-3.49970E-001	-1.25553E-007	-2.38489E-007	1.12936E-007	-3.75000E-001	4.01873E-004	6	..........a	-327.68
	1	0.2	-3.22915E-001	-3.72970E-001	-3.47942E-001	-1.11713E-007	-2.30074E-007	1.18361E-007	-3.73000E-001	4.17706E-004	6	..........a	-327.68
	2	0.3	-3.20944E-001	-3.70861E-001	-3.45902E-001	-1.07273E-007	-2.24205E-007	1.16932E-007	-3.71000E-001	4.08706E-004	6	..........a	-327.68
	3	0.4	-3.18838E-001	-3.69097E-001	-3.43967E-001	-1.03867E-007	-2.19324E-007	1.15458E-007	-3.69000E-001	4.10039E-004	6	..........a	-327.68
	4	0.5	-3.17012E-001	-3.66876E-001	-3.41944E-001	-1.00837E-007	-2.14575E-007	1.13738E-007	-3.67000E-001	4.14039E-004	6	..........a	-327.68
	5	0.6	-3.14927E-001	-3.65004E-001	-3.39966E-001	-9.84196E-008	-2.10195E-007	1.11776E-007	-3.65000E-001	4.04206E-004	6	..........a	-327.68
	6	0.7	-3.13025E-001	-3.62857E-001	-3.37941E-001	-9.53779E-008	-2.05572E-007	1.10194E-007	-3.63000E-001	3.96039E-004	6	..........a	-327.68
	7	0.8	-3.10880E-001	-3.61017E-001	-3.35948E-001	-9.29202E-008	-2.01428E-007	1.08508E-007	-3.61000E-001	3.99873E-004	6	..........a	-327.68
	8	0.9	-3.08977E-001	-3.58909E-001	-3.33943E-001	-9.02552E-008	-1.97445E-007	1.07189E-007	-3.59000E-001	3.93539E-004	6	..........a	-327.68
	9	1	-3.06884E-001	-3.56962E-001	-3.31923E-001	-8.79119E-008	-1.93590E-007	1.05678E-007	-3.57000E-001	4.00539E-004	6	..........a	-327.68
	10	1.1	-3.05021E-001	-3.54908E-001	-3.29965E-001	-8.52133E-008	-1.89587E-007	1.04373E-007	-3.55000E-001	3.87039E-004	6	..........a	-327.68
	11	1.2	-3.02928E-001	-3.53008E-001	-3.27968E-001	-8.28760E-008	-1.85480E-007	1.02604E-007	-3.53000E-001	3.92039E-004	6	..........a	-327.68
	12	1.3	-3.00993E-001	-3.50920E-001	-3.25956E-001	-8.02963E-008	-1.81855E-007	1.01558E-007	-3.51000E-001	3.90373E-004	6	..........a	-327.68
	13	1.4	-2.98914E-001	-3.48973E-001	-3.23943E-001	-7.80447E-008	-1.78017E-007	9.99721E-008	-3.49000E-001	4.12206E-004	6	..........a	-327.68
	14	1.5	-2.96964E-001	-3.46933E-001	-3.21948E-001	-7.58037E-008	-1.74393E-007	9.85892E-008	-3.47000E-001	4.09706E-004	6	..........a	-327.68
	15	1.6	-2.94904E-001	-3.45108E-001	-3.20006E-001	-7.32841E-008	-1.70555E-007	9.72707E-008	-3.45000E-001	4.09039E-004	6	..........a	-327.68
	16	1.7	-2.92989E-001	-3.42862E-001	-3.17925E-001	-7.10898E-008	-1.67304E-007	9.62142E-008	-3.43000E-001	4.12539E-004	6	..........a	-327.68
	17	1.8	-2.90840E-001	-3.40966E-001	-3.15903E-001	-6.89039E-008	-1.64171E-007	9.52671E-008	-3.41000E-001	4.20373E-004	6	..........a	-327.68
	18	1.9	-2.88996E-001	-3.38873E-001	-3.13935E-001	-6.68086E-008	-1.60640E-007	9.38316E-008	-3.39000E-001	4.17039E-004	6	..........a	-327.68
	19	2	-2.86857E-001	-3.37003E-001	-3.11930E-001	-6.46246E-008	-1.57263E-007	9.26388E-008	-3.37000E-001	4.09873E-004	6	..........a	-327.68
	20	2.1	-2.84967E-001	-3.34884E-001	-3.09926E-001	-6.24967E-008	-1.53962E-007	9.14650E-008	-3.35000E-001	4.16206E-004	6	..........a	-327.68
	21	2.2	-2.82863E-001	-3.33002E-001	-3.07932E-001	-6.04371E-008	-1.51099E-007	9.06615E-008	-3.33000E-001	4.06706E-004	6	..........a	-327.68
	22	2.3	-2.81035E-001	-3.30879E-001	-3.05957E-001	-5.84849E-008	-1.48213E-007	8.97284E-008	-3.31000E-001	4.07873E-004	6	..........a	-327.68
	23	2.4	-2.78887E-001	-3.29027E-001	-3.03957E-001	-5.64849E-008	-1.45083E-007	8.85976E-008	-3.29000E-001	4.10706E-004	6	..........a	-327.68
	24	2.5	-2.76974E-001	-3.26924E-001	-3.01949E-001	-5.45417E-008	-1.42166E-007	8.76245E-008	-3.27000E-001	4.03039E-004	6	..........a	-327.68
	25	2.6	-2.74913E-001	-3.24988E-001	-2.99951E-001	-5.26044E-008	-1.39202E-007	8.65973E-008	-3.25000E-001	4.08706E-004	6	..........a	-327.68
	26	2.7	-2.72960E-001	-3.22926E-001	-2.97943E-001	-5.05315E-008	-1.36370E-007	8.58389E-008	-3.23000E-001	3.93539E-004	6	..........a	-327.68
	27	2.8	-2.70908E-001	-3.20969E-001	-2.95938E-001	-4.87049E-008	-1.33633E-007	8.49281E-008	-3.21000E-001	3.94206E-004	6	..........a	-327.68
	28	2.9	-2.68953E-001	-3.18848E-001	-2.93900E-001	-4.70047E-008	-1.31011E-007	8.40060E-008	-3.19000E-001	3.94539E-004	6	..........a	-327.68
	29	3	-2.66827E-001	-3.17002E-001	-2.91914E-001	-4.53105E-008	-1.28339E-007	8.30289E-008	-3.17000E-001	4.07039E-004	6	..........a	-327.68
	30	3.1	-2.65070E-001	-3.14936E-001	-2.90003E-001	-4.35146E-008	-1.25761E-007	8.22465E-008	-3.15000E-001	4.08539E-004	6	..........a	-327.68
	31	3.2	-2.62901E-001	-3.13013E-001	-2.87957E-001	-4.17581E-008	-1.23397E-007	8.16394E-008	-3.13000E-001	4.10206E-004	6	..........a	-327.68
	32	3.3	-2.60984E-001	-3.10879E-001	-2.85931E-001	-3.99482E-008	-1.21016E-007	8.10683E-008	-3.11000E-001	4.07873E-004	6	..........a	-327.68
	33	3.4	-2.58867E-001	-3.08986E-001	-2.83927E-001	-3.83473E-008	-1.18473E-007	8.01255E-008	-3.09000E-001	3.97039E-004	6	..........a	-327.68
	34	3.5	-2.57007E-001	-3.06891E-001	-2.81949E-001	-3.65784E-008	-1.16297E-007	7.97181E-008	-3.07000E-001	3.99373E-004	6	..........a	-327.68
	35	3.6	-2.54932E-001	-3.05035E-001	-2.79983E-001	-3.50189E-008	-1.13756E-007	7.87370E-008	-3.05000E-001	4.02206E-004	6	..........a	-327.68
	36	3.7	-2.53016E-001	-3.02929E-001	-2.77973E-001	-3.34710E-008	-1.11506E-007	7.80346E-008	-3.03000E-001	3.99706E-004	6	..........a	-327.68
	37	3.8	-2.50907E-001	-3.00999E-001	-2.75953E-001	-3.18171E-008	-1.09272E-007	7.74545E-008	-3.01000E-001	4.05373E-004	6	..........a	-327.68
	38	3.9	-2.48985E-001	-2.98932E-001	-2.73959E-001	-3.02956E-008	-1.07376E-007	7.70805E-008	-2.99000E-001	3.98539E-004	6	..........a	-327.68
	39	4	-2.46919E-001	-2.96971E-001	-2.71945E-001	-2.90708E-008	-1.05172E-007	7.61017E-008	-2.97000E-001	4.14706E-004	6	..........a	-327.68
	40	4.1	-2.44953E-001	-2.94930E-001	-2.69941E-001	-2.76036E-008	-1.03026E-007	7.54226E-008	-2.95000E-001	4.02539E-004	6	..........a	-327.68
	41	4.2	-2.42817E-001	-2.92998E-001	-2.67908E-001	-2.60137E-008	-1.01236E-007	7.52226E-008	-2.93000E-001	4.03873E-004	6	..........a	-327.68
	42	4.3	-2.41078E-001	-2.90857E-001	-2.65967E-001	-2.47209E-008	-9.92697E-008	7.45488E-008	-2.91000E-001	4.04373E-004	6	..........a	-327.68
	43	4.4	-2.38877E-001	-2.89053E-001	-2.63965E-001	-2.34507E-008	-9.74005E-008	7.39497E-008	-2.89000E-001	4.11706E-004	6	..........a	-327.68
	44	4.5	-2.36973E-001	-2.86898E-001	-2.61936E-001	-2.21302E-008	-9.53939E-008	7.32637E-008	-2.87000E-001	4.11539E-004	6	..........a	-327.68
	45	4.6	-2.34857E-001	-2.85023E-001	-2.59940E-001	-2.11674E-008	-9.35727E-008	7.24052E-008	-2.85000E-001	4.07539E-004	6	..........a	-327.68
	46	4.7	-2.33015E-001	-2.82874E-001	-2.57944E-001	-2.00553E-008	-9.17417E-008	7.16864E-008	-2.83000E-001	4.01873E-004	6	..........a	-327.68
	47	4.8	-2.30896E-001	-2.81068E-001	-2.55982E-001	-1.87145E-008	-9.00339E-008	7.13194E-008	-2.81000E-001	4.11373E-004	6	..........a	-327.68
	48	4.9	-2.28974E-001	-2.78933E-001	-2.53954E-001	-1.72839E-008	-8.80893E-008	7.08053E-008	-2.79000E-001	4.01039E-004	6	..........a	-327.68
	49	5	-2.26887E-001	-2.77027E-001	-2.51957E-001	-1.65269E-008	-8.65124E-008	6.99856E-008	-2.77000E-001	3.90373E-004	6	..........a	-327.68
	50	5.1	-2.24985E-001	-2.74911E-001	-2.49948E-001	-1.53537E-008	-8.47642E-008	6.94105E-008	-2.75000E-001	3.96373E-004	6	..........a	-327.68
	51	5.2	-2.22908E-001	-2.72984E-001	-2.47946E-001	-1.42169E-008	-8.31227E-008	6.89058E-008	-2.73000E-001	3.97873E-004	6	..........a	-327.68
	52	5.3	-2.20958E-001	-2.70924E-001	-2.45941E-001	-1.34101E-008	-8.15368E-008	6.81267E-008	-2.71000E-001	4.11206E-004	6	..........a	-327.68
	53	5.4	-2.18916E-001	-2.68949E-001	-2.43932E-001	-1.24397E-008	-7.98212E-008	6.73816E-008	-2.69000E-001	4.10539E-004	6	..........a	-327.68
	54	5.5	-2.17093E-001	-2.66818E-001	-2.41955E-001	-1.13532E-008	-7.81867E-008	6.68335E-008	-2.67000E-001	4.01873E-004	6	..........a	-327.68
	55	5.6	-2.14875E-001	-2.65057E-001	-2.39966E-001	-1.03174E-008	-7.65301E-008	6.62127E-008	-2.65000E-001	4.12039E-004	6	..........a	-327.68
	56	5.7	-2.12950E-001	-2.62887E-001	-2.37919E-001	-9.50229E-009	-7.51136E-008	6.56113E-008	-2.63000E-001	4.19706E-004	6	..........a	-327.68
	57	5.8	-2.10858E-001	-2.61014E-001	-2.35936E-001	-8.57184E-009	-7.35838E-008	6.50119E-008	-2.61000E-001	4.11539E-004	6	..........a	-327.68
	58	5.9	-2.09014E-001	-2.58876E-001	-2.33945E-001	-7.76707E-009	-7.21333E-008	6.43662E-008	-2.59000E-001	4.15039E-004	6	..........a	-327.68
	59	6	-2.06882E-001	-2.56986E-001	-2.31934E-001	-6.84429E-009	-7.07171E-008	6.38728E-008	-2.57000E-001	4.19873E-004	6	..........a	-327.68
	60	6.1	-2.04994E-001	-2.54903E-001	-2.29948E-001	-5.92284E-009	-6.92382E-008	6.33154E-008	-2.55000E-001	4.21373E-004	6	..........a	-327.68
	61	6.2	-2.02890E-001	-2.53016E-001	-2.27953E-001	-5.13307E-009	-6.78224E-008	6.26893E-008	-2.53000E-001	4.16873E-004	6	..........a	-327.68
	62	6.3	-2.01016E-001	-2.50904E-001	-2.25960E-001	-4.10561E-009	-6.63585E-008	6.22529E-008	-2.51000E-001	4.12373E-004	6	..........a	-327.68
	63	6.4	-1.98920E-001	-2.48985E-001	-2.23952E-001	-3.33217E-009	-6.49173E-008	6.15852E-008	-2.49000E-001	4.12039E-004	6	..........a	-327.68
	64	6.5	-1.96993E-001	-2.46891E-001	-2.21942E-001	-2.76443E-009	-6.38235E-008	6.10591E-008	-2.47000E-001	4.12206E-004	6	..........a	-327.68
	65	6.6	-1.94918E-001	-2.44923E-001	-2.19921E-001	-1.86499E-009	-6.22437E-008	6.03787E-008	-2.45000E-001	4.14539E-004	6	..........a	-327.68
	66	6.7	-1.92978E-001	-2.42844E-001	-2.17911E-001	-1.16790E-009	-6.09902E-008	5.98223E-008	-2.43000E-001	4.10706E-004	6	..........a	-327.68
	67	6.8	-1.90872E-001	-2.41076E-001	-2.15974E-001	-4.43806E-010	-5.97494E-008	5.93055E-008	-2.41000E-001	4.10373E-004	6	..........a	-327.68
	68	6.9	-1.88992E-001	-2.38863E-001	-2.13927E-001	4.04301E-010	-5.85562E-008	5.89605E-008	-2.39000E-001	4.06873E-004	6	..........a	-327.68
	69	7	-1.86858E-001	-2.36914E-001	-2.11886E-001	1.08572E-009	-5.72554E-008	5.83411E-008	-2.37000E-001	4.16039E-004	6	..........a	-327.68
	70	7.1	-1.85019E-001	-2.34860E-001	-2.09940E-001	1.85815E-009	-5.61672E-008	5.80254E-008	-2.35000E-001	4.06873E-004	6	..........a	-327.68
	71	7.2	-1.82891E-001	-2.33017E-001	-2.07954E-001	2.50624E-009	-5.48621E-008	5.73683E-008	-2.33000E-001	4.12373E-004	6	..........a	-327.68
	72	7.3	-1.81010E-001	-2.30877E-001	-2.05944E-001	3.01130E-009	-5.40323E-008	5.70436E-008	-2.31000E-001	4.11039E-004	6	..........a	-327.68
	73	7.4	-1.78881E-001	-2.28987E-001	-2.03934E-001	3.69472E-009	-5.28395E-008	5.65342E-008	-2.29000E-001	4.12373E-004	6	..........a	-327.68
	74	7.5	-1.77042E-001	-2.26911E-001	-2.01976E-001	4.20745E-009	-5.16680E-008	5.58754E-008	-2.27000E-001	4.07706E-004	6	..........a	-327.68
	75	7.6	-1.74941E-001	-2.24996E-001	-1.99968E-001	4.77319E-009	-5.08015E-008	5.55747E-008	-2.25000E-001	4.02873E-004	6	..........a	-327.68
	76	7.7	-1.73020E-001	-2.22917E-001	-1.97969E-001	5.44694E-009	-4.99128E-008	5.53597E-008	-2.23000E-001	4.02373E-004	6	..........a	-327.68
	77	7.8	-1.70914E-001	-2.20972E-001	-1.95943E-001	5.98535E-009	-4.87330E-008	5.47183E-008	-2.21000E-001	4.01039E-004	6	..........a	-327.68
	78	7.9	-1.68999E-001	-2.18945E-001	-1.93972E-001	6.51575E-009	-4.78018E-008	5.43176E-008	-2.19000E-001	4.04873E-004	6	..........a	-327.68
	79	8	-1.66950E-001	-2.17098E-001	-1.92024E-001	7.08949E-009	-4.69914E-008	5.40809E-008	-2.17000E-001	4.00373E-004	6	..........a	-327.68
	80	8.1	-1.64862E-001	-2.14858E-001	-1.89860E-001	7.84458E-009	-4.60746E-008	5.39192E-008	-2.15000E-001	4.03873E-004	6	..........a	-327.68
	81	8.2	-1.62838E-001	-2.12969E-001	-1.87903E-001	8.20896E-009	-4.51045E-008	5.33134E-008	-2.13000E-001	4.01873E-004	6	..........a	-327.68
	82	8.3	-1.60995E-001	-2.10908E-001	-1.85952E-001	8.77770E-009	-4.42204E-008	5.29981E-008	-2.11000E-001	4.01373E-004	6	..........a	-327.68
	83	8.4	-1.58918E-001	-2.09020E-001	-1.83969E-001	9.46112E-009	-4.34950E-008	5.29561E-008	-2.09000E-001	4.05039E-004	6	..........a	-327.68
	84	8.5	-1.56977E-001	-2.06899E-001	-1.81938E-001	1.03239E-008	-4.25108E-008	5.28347E-008	-2.07000E-001	3.94539E-004	6	..........a	-327.68
	85	8.6	-1.54869E-001	-2.05006E-001	-1.79937E-001	1.05553E-008	-4.17614E-008	5.23167E-008	-2.05000E-001	3.98206E-004	6	..........a	-327.68
	86	8.7	-1.53047E-001	-2.02886E-001	-1.77966E-001	1.11113E-008	-4.09810E-008	5.20923E-008	-2.03000E-001	4.01873E-004	6	..........a	-327.68
	87	8.8	-1.50936E-001	-2.01026E-001	-1.75981E-001	1.15757E-008	-4.03245E-008	5.19003E-008	-2.01000E-001	3.94039E-004	6	..........a	-327.68
	88	8.9	-1.49016E-001	-1.98948E-001	-1.73982E-001	1.20418E-008	-3.93941E-008	5.14359E-008	-1.99000E-001	3.93373E-004	6	..........a	-327.68
	89	9	-1.46909E-001	-1.96990E-001	-1.71949E-001	1.26992E-008	-3.87700E-008	5.14692E-008	-1.97000E-001	4.02206E-004	6	..........a	-327.68
	90	9.1	-1.44990E-001	-1.94924E-001	-1.69957E-001	1.30279E-008	-3.80156E-008	5.10435E-008	-1.95000E-001	3.89873E-004	6	..........a	-327.68
	91	9.2	-1.42952E-001	-1.92977E-001	-1.67964E-001	1.32139E-008	-3.72865E-008	5.05004E-008	-1.93000E-001	4.05039E-004	6	..........a	-327.68
	92	9.3	-1.40990E-001	-1.90895E-001	-1.65943E-001	1.38123E-008	-3.64761E-008	5.02884E-008	-1.91000E-001	3.90706E-004	6	..........a	-327.68
	93	9.4	-1.38817E-001	-1.88969E-001	-1.63893E-001	1.44611E-008	-3.57190E-008	5.01801E-008	-1.89000E-001	3.85539E-004	6	..........a	-327.68
	94	9.5	-1.37064E-001	-1.86860E-001	-1.61962E-001	1.48395E-008	-3.51789E-008	5.00184E-008	-1.87000E-001	3.88373E-004	6	..........a	-327.68
	95	9.6	-1.34937E-001	-1.85028E-001	-1.59983E-001	1.54572E-008	-3.44751E-008	4.99324E-008	-1.85000E-001	3.94206E-004	6	..........a	-327.68
	96	9.7	-1.32938E-001	-1.82914E-001	-1.57926E-001	1.57953E-008	-3.39274E-008	4.97227E-008	-1.83000E-001	3.89706E-004	6	..........a	-327.68
	97	9.8	-1.30861E-001	-1.81018E-001	-1.55939E-001	1.62286E-008	-3.34790E-008	4.97077E-008	-1.81000E-001	3.99206E-004	6	..........a	-327.68
	98	9.9	-1.29006E-001	-1.78887E-001	-1.53947E-001	1.68694E-008	-3.29393E-008	4.98087E-008	-1.79000E-001	3.97873E-004	6	..........a	-327.68
	99	10	-1.26951E-001	-1.77018E-001	-1.51984E-001	1.71388E-008	-3.22785E-008	4.94173E-008	-1.77000E-001	4.02039E-004	6	..........a	-327.68
	100	10.1	-1.24990E-001	-1.74931E-001	-1.49960E-001	1.74958E-008	-3.16281E-008	4.91239E-008	-1.75000E-001	3.94873E-004	6	..........a	-327.68