File: C-COM3/SWV_10Hz STD3 50  fgml 081020_#7.DTA
EXPLAIN
TAG	SQUARE_WAVE
TITLE	LABEL	Square Wave Voltammetry	Test Identifier
DATE	LABEL	8/10/2020	Date
TIME	LABEL	19:13:51	Time
NOTES	NOTES	1	Notes...
	 STD3 50  fg/mL 08102
PSTAT	PSTAT	REF600-24079	Potentiostat
VINIT	QUANT	-3.50000E-001	Initial E (V)
VFINAL	QUANT	-1.50000E-001	Final E (V)
STEPSIZE	QUANT	2.00000E+000	Step Size (mV)
TIMERRES	QUANT	3.33340E-005	&Timer Resolution
FREQUENCY	QUANT	1.00000E+001	Frequency (Hz)
PULSESIZE	QUANT	2.50000E+001	Pulse Size E (mV)
PULSEON	QUANT	1.00000E-001	Pulse &Time (s)
NOISEREJECT	TOGGLE	F	Noise Rejection
AREA	QUANT	2.00000E-002	Sample Area (cm^2)
IMODE	SELECTOR	1	I/E Range Mode
IRANGE	QUANT	1.00000E-003	Max Current (mA)
EQDELAY	IQUANT	10	Equil. Time (s)
IRCOMP	SELECTOR	0	IRComp
PFCOR	QUANT	5.00000E+001	PF Corr. (ohm)
CYCLES	IQUANT	101	C&ycles (#)
ELECTRODETYPE	SELECTOR	0	Electrode Type
STRIPPING	TOGGLE	F	Used for Stripping
POLARITY	TOGGLE	F	Signal Polarity
LINEFREQ	IQUANT	60	Line Frequency (Hz)
INTPERIOD	QUANT	3.3334E-005	Integration Period (s)
SEQUENCER	TOGGLE	TRUE	Run as Sequence
PSTATMODEL	IQUANT	4	Pstat Model
PSTATSECTION	LABEL	REF600-24079	Pstat Section
PSTATSERIALNO	LABEL	24079	Pstat Serial Number
CTRLMODE	IQUANT	1	Control Mode
ELECTROMETER	IQUANT	0	RE=0 or CS=1
IESTAB	IQUANT	2	I/E Stability
CASPEED	IQUANT	6	Control Amp Speed
CONVENTION	IQUANT	1	Current Convention
ICHRANGE	IQUANT	2	Ich Range
ICHRANGEMODE	TOGGLE	F	Ich Auto Range
ICHOFFSETENABLE	TOGGLE	F	Ich Offset Enable
ICHOFFSET	QUANT	0	Ich Offset (V)
ICHFILTER	IQUANT	2	Ich Filter
VCHRANGE	IQUANT	2	Vch Range
VCHRANGEMODE	TOGGLE	F	Vch Auto Range
VCHOFFSETENABLE	TOGGLE	F	Vch Offset Enable
VCHOFFSET	QUANT	0	Vch Offset (V)
VCHFILTER	IQUANT	2	Vch Filter
ACHRANGE	IQUANT	2	Ach Range
ACHOFFSETENABLE	TOGGLE	F	Ach Offset Enable
ACHOFFSET	QUANT	0	Ach Offset (V)
ACHFILTER	IQUANT	1	Ach Filter
IERANGELOWERLIMIT	IQUANT	1	I/E Range Lower Limit
IERANGEMODE	TOGGLE	F	I/E AutoRange
IERANGE	IQUANT	6	I/E Range
POSFEEDENABLE	TOGGLE	F	Positive Feedback IR Comp
POSFEEDRESISTANCE	QUANT	0	Positive Feedback Resistance (ohm)
ACHSELECT	IQUANT	0	Ach Select
SENSECABLEID	IQUANT	13	Sense Cable ID
PWRCABLEID	IQUANT	13	Power Cable ID
DCCALDATE	LABEL	6/30/2020	DC Calibration Date
ACCALDATE	LABEL	6/30/2020	AC Calibration Date
THERMOSELECT	IQUANT	1	Thermo Select
FRAMEWORKVERSION	LABEL	7.8.2	Framework Version
INSTRUMENTVERSION	LABEL	4.40	Instrument Version
CURVE	TABLE	101
	Pt	T	Vfwd	Vrev	Vstep	Ifwd	Irev	Idif	Sig	Ach	IERange	Over	Temp
	#	s	V	V	V	A	A	A	V	V	#	bits	deg C
	0	0.1	-3.24911E-001	-3.74925E-001	-3.49918E-001	-1.01481E-007	-1.98630E-007	9.71490E-008	-3.75000E-001	3.36706E-004	6	..........a	-327.68
	1	0.2	-3.22879E-001	-3.72931E-001	-3.47905E-001	-8.67151E-008	-1.90568E-007	1.03853E-007	-3.73000E-001	3.29373E-004	6	..........a	-327.68
	2	0.3	-3.20915E-001	-3.70792E-001	-3.45854E-001	-8.26879E-008	-1.85987E-007	1.03299E-007	-3.71000E-001	3.37373E-004	6	..........a	-327.68
	3	0.4	-3.18897E-001	-3.68984E-001	-3.43941E-001	-7.97246E-008	-1.82229E-007	1.02505E-007	-3.69000E-001	3.59539E-004	6	..........a	-327.68
	4	0.5	-3.16865E-001	-3.66928E-001	-3.41896E-001	-7.72799E-008	-1.78505E-007	1.01225E-007	-3.67000E-001	3.72706E-004	6	..........a	-327.68
	5	0.6	-3.14893E-001	-3.64948E-001	-3.39920E-001	-7.48593E-008	-1.74753E-007	9.98941E-008	-3.65000E-001	3.79539E-004	6	..........a	-327.68
	6	0.7	-3.12939E-001	-3.62836E-001	-3.37888E-001	-7.28320E-008	-1.71189E-007	9.83568E-008	-3.63000E-001	3.82039E-004	6	..........a	-327.68
	7	0.8	-3.10898E-001	-3.60931E-001	-3.35914E-001	-7.04797E-008	-1.67878E-007	9.73984E-008	-3.61000E-001	3.79539E-004	6	..........a	-327.68
	8	0.9	-3.08893E-001	-3.58907E-001	-3.33900E-001	-6.84675E-008	-1.64570E-007	9.61029E-008	-3.59000E-001	3.79706E-004	6	..........a	-327.68
	9	1	-3.06845E-001	-3.56942E-001	-3.31894E-001	-6.67439E-008	-1.61234E-007	9.44900E-008	-3.57000E-001	3.77539E-004	6	..........a	-327.68
	10	1.1	-3.04932E-001	-3.54856E-001	-3.29894E-001	-6.43196E-008	-1.57867E-007	9.35476E-008	-3.55000E-001	3.79373E-004	6	..........a	-327.68
	11	1.2	-3.02904E-001	-3.52940E-001	-3.27922E-001	-6.21903E-008	-1.54878E-007	9.26875E-008	-3.53000E-001	3.66039E-004	6	..........a	-327.68
	12	1.3	-3.00922E-001	-3.50913E-001	-3.25918E-001	-6.02634E-008	-1.51874E-007	9.16110E-008	-3.51000E-001	3.67206E-004	6	..........a	-327.68
	13	1.4	-2.98878E-001	-3.48930E-001	-3.23904E-001	-5.84135E-008	-1.48842E-007	9.04288E-008	-3.49000E-001	3.69539E-004	6	..........a	-327.68
	14	1.5	-2.96899E-001	-3.46903E-001	-3.21901E-001	-5.64079E-008	-1.45869E-007	8.94610E-008	-3.47000E-001	3.74373E-004	6	..........a	-327.68
	15	1.6	-2.94870E-001	-3.44984E-001	-3.19927E-001	-5.46220E-008	-1.42906E-007	8.82839E-008	-3.45000E-001	3.72206E-004	6	..........a	-327.68
	16	1.7	-2.92826E-001	-3.42900E-001	-3.17863E-001	-5.27225E-008	-1.40192E-007	8.74698E-008	-3.43000E-001	3.59373E-004	6	..........a	-327.68
	17	1.8	-2.90816E-001	-3.40890E-001	-3.15853E-001	-5.12576E-008	-1.37338E-007	8.60806E-008	-3.41000E-001	3.66706E-004	6	..........a	-327.68
	18	1.9	-2.88953E-001	-3.38854E-001	-3.13903E-001	-4.93354E-008	-1.34364E-007	8.50285E-008	-3.39000E-001	3.61373E-004	6	..........a	-327.68
	19	2	-2.86891E-001	-3.36926E-001	-3.11909E-001	-4.76241E-008	-1.31747E-007	8.41227E-008	-3.37000E-001	3.66706E-004	6	..........a	-327.68
	20	2.1	-2.84899E-001	-3.34912E-001	-3.09905E-001	-4.58613E-008	-1.28997E-007	8.31359E-008	-3.35000E-001	3.61039E-004	6	..........a	-327.68
	21	2.2	-2.82832E-001	-3.32913E-001	-3.07873E-001	-4.40534E-008	-1.26496E-007	8.24422E-008	-3.33000E-001	3.76206E-004	6	..........a	-327.68
	22	2.3	-2.80980E-001	-3.30851E-001	-3.05915E-001	-4.23501E-008	-1.24103E-007	8.17524E-008	-3.31000E-001	3.77373E-004	6	..........a	-327.68
	23	2.4	-2.78906E-001	-3.28938E-001	-3.03922E-001	-4.07026E-008	-1.21708E-007	8.10053E-008	-3.29000E-001	3.65539E-004	6	..........a	-327.68
	24	2.5	-2.76913E-001	-3.26904E-001	-3.01908E-001	-3.89814E-008	-1.18896E-007	7.99148E-008	-3.27000E-001	3.68873E-004	6	..........a	-327.68
	25	2.6	-2.74880E-001	-3.24911E-001	-2.99895E-001	-3.75185E-008	-1.16706E-007	7.91877E-008	-3.25000E-001	3.60206E-004	6	..........a	-327.68
	26	2.7	-2.72923E-001	-3.22887E-001	-2.97905E-001	-3.59553E-008	-1.14464E-007	7.85090E-008	-3.23000E-001	3.54539E-004	6	..........a	-327.68
	27	2.8	-2.70916E-001	-3.20914E-001	-2.95915E-001	-3.43561E-008	-1.12084E-007	7.77279E-008	-3.21000E-001	3.65706E-004	6	..........a	-327.68
	28	2.9	-2.68925E-001	-3.18920E-001	-2.93923E-001	-3.27146E-008	-1.09910E-007	7.71955E-008	-3.19000E-001	3.70706E-004	6	..........a	-327.68
	29	3	-2.66820E-001	-3.16867E-001	-2.91844E-001	-3.12651E-008	-1.07521E-007	7.62560E-008	-3.17000E-001	3.71039E-004	6	..........a	-327.68
	30	3.1	-2.64954E-001	-3.14896E-001	-2.89925E-001	-2.97982E-008	-1.05582E-007	7.57840E-008	-3.15000E-001	3.71539E-004	6	..........a	-327.68
	31	3.2	-2.62922E-001	-3.12937E-001	-2.87929E-001	-2.83520E-008	-1.03212E-007	7.48602E-008	-3.13000E-001	3.58373E-004	6	..........a	-327.68
	32	3.3	-2.60870E-001	-3.10902E-001	-2.85886E-001	-2.67698E-008	-1.01466E-007	7.46958E-008	-3.11000E-001	3.69373E-004	6	..........a	-327.68
	33	3.4	-2.58841E-001	-3.08914E-001	-2.83877E-001	-2.54183E-008	-9.94011E-008	7.39827E-008	-3.09000E-001	3.62539E-004	6	..........a	-327.68
	34	3.5	-2.56903E-001	-3.06853E-001	-2.81878E-001	-2.40128E-008	-9.73345E-008	7.33217E-008	-3.07000E-001	3.47539E-004	6	..........a	-327.68
	35	3.6	-2.54920E-001	-3.04945E-001	-2.79933E-001	-2.27133E-008	-9.54842E-008	7.27709E-008	-3.05000E-001	3.64539E-004	6	..........a	-327.68
	36	3.7	-2.52922E-001	-3.02929E-001	-2.77926E-001	-2.13788E-008	-9.36910E-008	7.23122E-008	-3.03000E-001	3.62206E-004	6	..........a	-327.68
	37	3.8	-2.50859E-001	-3.00925E-001	-2.75892E-001	-2.01720E-008	-9.19361E-008	7.17641E-008	-3.01000E-001	3.81539E-004	6	..........a	-327.68
	38	3.9	-2.48925E-001	-2.98883E-001	-2.73904E-001	-1.91922E-008	-9.00719E-008	7.08797E-008	-2.99000E-001	3.49539E-004	6	..........a	-327.68
	39	4	-2.46913E-001	-2.96934E-001	-2.71924E-001	-1.79577E-008	-8.81983E-008	7.02406E-008	-2.97000E-001	3.51539E-004	6	..........a	-327.68
	40	4.1	-2.44912E-001	-2.94924E-001	-2.69918E-001	-1.68402E-008	-8.65328E-008	6.96925E-008	-2.95000E-001	3.67706E-004	6	..........a	-327.68
	41	4.2	-2.42794E-001	-2.92811E-001	-2.67802E-001	-1.54014E-008	-8.46522E-008	6.92508E-008	-2.93000E-001	3.59706E-004	6	..........a	-327.68
	42	4.3	-2.40956E-001	-2.90821E-001	-2.65889E-001	-1.44793E-008	-8.32727E-008	6.87934E-008	-2.91000E-001	3.63039E-004	6	..........a	-327.68
	43	4.4	-2.38922E-001	-2.88952E-001	-2.63937E-001	-1.33981E-008	-8.16125E-008	6.82143E-008	-2.89000E-001	3.59039E-004	6	..........a	-327.68
	44	4.5	-2.36897E-001	-2.86899E-001	-2.61898E-001	-1.23480E-008	-7.98482E-008	6.75003E-008	-2.87000E-001	3.57039E-004	6	..........a	-327.68
	45	4.6	-2.34830E-001	-2.84921E-001	-2.59875E-001	-1.14779E-008	-7.82364E-008	6.67585E-008	-2.85000E-001	3.63206E-004	6	..........a	-327.68
	46	4.7	-2.32917E-001	-2.82837E-001	-2.57877E-001	-1.03341E-008	-7.68242E-008	6.64901E-008	-2.83000E-001	3.69539E-004	6	..........a	-327.68
	47	4.8	-2.30895E-001	-2.80974E-001	-2.55934E-001	-9.42362E-009	-7.55197E-008	6.60961E-008	-2.81000E-001	3.83373E-004	6	..........a	-327.68
	48	4.9	-2.28855E-001	-2.78891E-001	-2.53873E-001	-8.50217E-009	-7.40358E-008	6.55337E-008	-2.79000E-001	3.68206E-004	6	..........a	-327.68
	49	5	-2.26840E-001	-2.76931E-001	-2.51886E-001	-7.78374E-009	-7.26413E-008	6.48576E-008	-2.77000E-001	3.81539E-004	6	..........a	-327.68
	50	5.1	-2.24916E-001	-2.74886E-001	-2.49901E-001	-6.91796E-009	-7.10728E-008	6.41548E-008	-2.75000E-001	3.84539E-004	6	..........a	-327.68
	51	5.2	-2.22897E-001	-2.72912E-001	-2.47904E-001	-5.96818E-009	-6.97963E-008	6.38281E-008	-2.73000E-001	3.78706E-004	6	..........a	-327.68
	52	5.3	-2.20897E-001	-2.70881E-001	-2.45889E-001	-5.14374E-009	-6.81361E-008	6.29923E-008	-2.71000E-001	3.74039E-004	6	..........a	-327.68
	53	5.4	-2.18877E-001	-2.68918E-001	-2.43898E-001	-4.31463E-009	-6.69523E-008	6.26376E-008	-2.69000E-001	3.83373E-004	6	..........a	-327.68
	54	5.5	-2.16977E-001	-2.66785E-001	-2.41881E-001	-3.56654E-009	-6.54381E-008	6.18715E-008	-2.67000E-001	3.73706E-004	6	..........a	-327.68
	55	5.6	-2.14899E-001	-2.64969E-001	-2.39934E-001	-2.78477E-009	-6.44309E-008	6.16462E-008	-2.65000E-001	3.76206E-004	6	..........a	-327.68
	56	5.7	-2.12916E-001	-2.62885E-001	-2.37900E-001	-2.17936E-009	-6.28894E-008	6.07101E-008	-2.63000E-001	3.81539E-004	6	..........a	-327.68
	57	5.8	-2.10860E-001	-2.60898E-001	-2.35879E-001	-1.31825E-009	-6.17446E-008	6.04264E-008	-2.61000E-001	3.69873E-004	6	..........a	-327.68
	58	5.9	-2.08910E-001	-2.58833E-001	-2.33872E-001	-6.54166E-010	-6.05148E-008	5.98606E-008	-2.59000E-001	3.66206E-004	6	..........a	-327.68
	59	6	-2.06910E-001	-2.56907E-001	-2.31909E-001	-3.50878E-011	-5.91966E-008	5.91615E-008	-2.57000E-001	3.62706E-004	6	..........a	-327.68
	60	6.1	-2.04883E-001	-2.54905E-001	-2.29894E-001	6.64335E-010	-5.79508E-008	5.86151E-008	-2.55000E-001	3.70706E-004	6	..........a	-327.68
	61	6.2	-2.02831E-001	-2.52929E-001	-2.27880E-001	1.33209E-009	-5.66640E-008	5.79960E-008	-2.53000E-001	3.78039E-004	6	..........a	-327.68
	62	6.3	-2.00931E-001	-2.50876E-001	-2.25903E-001	1.96750E-009	-5.57548E-008	5.77223E-008	-2.51000E-001	3.50539E-004	6	..........a	-327.68
	63	6.4	-1.98930E-001	-2.48925E-001	-2.23927E-001	2.42456E-009	-5.45890E-008	5.70136E-008	-2.49000E-001	3.56039E-004	6	..........a	-327.68
	64	6.5	-1.96924E-001	-2.46895E-001	-2.21909E-001	2.93429E-009	-5.34289E-008	5.63632E-008	-2.47000E-001	3.49873E-004	6	..........a	-327.68
	65	6.6	-1.94884E-001	-2.44914E-001	-2.19899E-001	3.40802E-009	-5.23467E-008	5.57548E-008	-2.45000E-001	3.55206E-004	6	..........a	-327.68
	66	6.7	-1.92935E-001	-2.42813E-001	-2.17874E-001	4.11577E-009	-5.14710E-008	5.55867E-008	-2.43000E-001	3.51539E-004	6	..........a	-327.68
	67	6.8	-1.90904E-001	-2.40976E-001	-2.15940E-001	4.59683E-009	-5.03278E-008	5.49247E-008	-2.41000E-001	3.52039E-004	6	..........a	-327.68
	68	6.9	-1.88831E-001	-2.38906E-001	-2.13868E-001	5.13924E-009	-4.96344E-008	5.47736E-008	-2.39000E-001	3.60873E-004	6	..........a	-327.68
	69	7	-1.86840E-001	-2.36935E-001	-2.11888E-001	5.88367E-009	-4.84486E-008	5.43322E-008	-2.37000E-001	3.58539E-004	6	..........a	-327.68
	70	7.1	-1.84937E-001	-2.34842E-001	-2.09890E-001	6.27238E-009	-4.74508E-008	5.37232E-008	-2.35000E-001	3.57873E-004	6	..........a	-327.68
	71	7.2	-1.82892E-001	-2.32925E-001	-2.07908E-001	6.88446E-009	-4.64897E-008	5.33741E-008	-2.33000E-001	3.56873E-004	6	..........a	-327.68
	72	7.3	-1.80859E-001	-2.30899E-001	-2.05879E-001	7.24684E-009	-4.56882E-008	5.29351E-008	-2.31000E-001	3.45873E-004	6	..........a	-327.68
	73	7.4	-1.78815E-001	-2.28936E-001	-2.03875E-001	7.63589E-009	-4.47524E-008	5.23883E-008	-2.29000E-001	3.58873E-004	6	..........a	-327.68
	74	7.5	-1.76906E-001	-2.26856E-001	-2.01881E-001	8.17829E-009	-4.39750E-008	5.21533E-008	-2.27000E-001	3.45373E-004	6	..........a	-327.68
	75	7.6	-1.74914E-001	-2.24920E-001	-1.99917E-001	8.78870E-009	-4.30726E-008	5.18613E-008	-2.25000E-001	3.39206E-004	6	..........a	-327.68
	76	7.7	-1.72887E-001	-2.22905E-001	-1.97896E-001	9.17442E-009	-4.22415E-008	5.14159E-008	-2.23000E-001	3.51206E-004	6	..........a	-327.68
	77	7.8	-1.70845E-001	-2.20914E-001	-1.95879E-001	9.58680E-009	-4.15447E-008	5.11315E-008	-2.21000E-001	3.41539E-004	6	..........a	-327.68
	78	7.9	-1.68914E-001	-2.18899E-001	-1.93907E-001	1.01142E-008	-4.07243E-008	5.08385E-008	-2.19000E-001	3.41206E-004	6	..........a	-327.68
	79	8	-1.66922E-001	-2.16985E-001	-1.91954E-001	1.05293E-008	-3.99532E-008	5.04824E-008	-2.17000E-001	3.45873E-004	6	..........a	-327.68
	80	8.1	-1.64758E-001	-2.14911E-001	-1.89834E-001	1.09713E-008	-3.94334E-008	5.04047E-008	-2.15000E-001	3.32539E-004	6	..........a	-327.68
	81	8.2	-1.62794E-001	-2.12850E-001	-1.87822E-001	1.14430E-008	-3.86230E-008	5.00660E-008	-2.13000E-001	3.47706E-004	6	..........a	-327.68
	82	8.3	-1.60948E-001	-2.10860E-001	-1.85904E-001	1.18568E-008	-3.80143E-008	4.98710E-008	-2.11000E-001	3.53873E-004	6	..........a	-327.68
	83	8.4	-1.58913E-001	-2.08914E-001	-1.83914E-001	1.23998E-008	-3.73055E-008	4.97053E-008	-2.09000E-001	3.33039E-004	6	..........a	-327.68
	84	8.5	-1.56844E-001	-2.06916E-001	-1.81880E-001	1.26762E-008	-3.66911E-008	4.93673E-008	-2.07000E-001	3.38873E-004	6	..........a	-327.68
	85	8.6	-1.54829E-001	-2.04895E-001	-1.79862E-001	1.29296E-008	-3.58053E-008	4.87349E-008	-2.05000E-001	3.60706E-004	6	..........a	-327.68
	86	8.7	-1.52935E-001	-2.02852E-001	-1.77893E-001	1.36186E-008	-3.52002E-008	4.88189E-008	-2.03000E-001	3.54039E-004	6	..........a	-327.68
	87	8.8	-1.50906E-001	-2.00950E-001	-1.75928E-001	1.40154E-008	-3.48839E-008	4.88992E-008	-2.01000E-001	3.56373E-004	6	..........a	-327.68
	88	8.9	-1.48898E-001	-1.98918E-001	-1.73908E-001	1.43511E-008	-3.43081E-008	4.86592E-008	-1.99000E-001	3.38539E-004	6	..........a	-327.68
	89	9	-1.46856E-001	-1.96915E-001	-1.71885E-001	1.47821E-008	-3.36094E-008	4.83915E-008	-1.97000E-001	3.46873E-004	6	..........a	-327.68
	90	9.1	-1.44913E-001	-1.94891E-001	-1.69902E-001	1.50315E-008	-3.30763E-008	4.81078E-008	-1.95000E-001	3.41539E-004	6	..........a	-327.68
	91	9.2	-1.42924E-001	-1.92920E-001	-1.67922E-001	1.55396E-008	-3.23595E-008	4.78991E-008	-1.93000E-001	3.38206E-004	6	..........a	-327.68
	92	9.3	-1.40910E-001	-1.90926E-001	-1.65918E-001	1.57229E-008	-3.20125E-008	4.77354E-008	-1.91000E-001	3.43706E-004	6	..........a	-327.68
	93	9.4	-1.38785E-001	-1.88832E-001	-1.63808E-001	1.62403E-008	-3.13151E-008	4.75554E-008	-1.89000E-001	3.36706E-004	6	..........a	-327.68
	94	9.5	-1.36923E-001	-1.86855E-001	-1.61889E-001	1.64683E-008	-3.09410E-008	4.74094E-008	-1.87000E-001	3.43706E-004	6	..........a	-327.68
	95	9.6	-1.34923E-001	-1.84938E-001	-1.59931E-001	1.68767E-008	-3.03879E-008	4.72647E-008	-1.85000E-001	3.37539E-004	6	..........a	-327.68
	96	9.7	-1.32831E-001	-1.82897E-001	-1.57864E-001	1.72528E-008	-3.01406E-008	4.73934E-008	-1.83000E-001	3.34539E-004	6	..........a	-327.68
	97	9.8	-1.30824E-001	-1.80897E-001	-1.55860E-001	1.76412E-008	-2.97302E-008	4.73714E-008	-1.81000E-001	3.33039E-004	6	..........a	-327.68
	98	9.9	-1.28872E-001	-1.78841E-001	-1.53856E-001	1.77815E-008	-2.92791E-008	4.70607E-008	-1.79000E-001	3.44206E-004	6	..........a	-327.68
	99	10	-1.26925E-001	-1.76923E-001	-1.51924E-001	1.82689E-008	-2.86334E-008	4.69023E-008	-1.77000E-001	3.42206E-004	6	..........a	-327.68
	100	10.1	-1.24867E-001	-1.74909E-001	-1.49888E-001	1.86833E-008	-2.83524E-008	4.70356E-008	-1.75000E-001	3.48539E-004	6	..........a	-327.68