File: C-COM3/SWV_10Hz STD3 aptmch 081020_#3.DTA
EXPLAIN
TAG	SQUARE_WAVE
TITLE	LABEL	Square Wave Voltammetry	Test Identifier
DATE	LABEL	8/10/2020	Date
TIME	LABEL	13:16:05	Time
NOTES	NOTES	1	Notes...
	 STD3 aptmch 08102
PSTAT	PSTAT	REF600-24079	Potentiostat
VINIT	QUANT	-3.50000E-001	Initial E (V)
VFINAL	QUANT	-1.50000E-001	Final E (V)
STEPSIZE	QUANT	2.00000E+000	Step Size (mV)
TIMERRES	QUANT	3.33340E-005	&Timer Resolution
FREQUENCY	QUANT	1.00000E+001	Frequency (Hz)
PULSESIZE	QUANT	2.50000E+001	Pulse Size E (mV)
PULSEON	QUANT	1.00000E-001	Pulse &Time (s)
NOISEREJECT	TOGGLE	F	Noise Rejection
AREA	QUANT	2.00000E-002	Sample Area (cm^2)
IMODE	SELECTOR	1	I/E Range Mode
IRANGE	QUANT	1.00000E-003	Max Current (mA)
EQDELAY	IQUANT	10	Equil. Time (s)
IRCOMP	SELECTOR	0	IRComp
PFCOR	QUANT	5.00000E+001	PF Corr. (ohm)
CYCLES	IQUANT	101	C&ycles (#)
ELECTRODETYPE	SELECTOR	0	Electrode Type
STRIPPING	TOGGLE	F	Used for Stripping
POLARITY	TOGGLE	F	Signal Polarity
LINEFREQ	IQUANT	60	Line Frequency (Hz)
INTPERIOD	QUANT	3.3334E-005	Integration Period (s)
SEQUENCER	TOGGLE	TRUE	Run as Sequence
PSTATMODEL	IQUANT	4	Pstat Model
PSTATSECTION	LABEL	REF600-24079	Pstat Section
PSTATSERIALNO	LABEL	24079	Pstat Serial Number
CTRLMODE	IQUANT	1	Control Mode
ELECTROMETER	IQUANT	0	RE=0 or CS=1
IESTAB	IQUANT	2	I/E Stability
CASPEED	IQUANT	6	Control Amp Speed
CONVENTION	IQUANT	1	Current Convention
ICHRANGE	IQUANT	2	Ich Range
ICHRANGEMODE	TOGGLE	F	Ich Auto Range
ICHOFFSETENABLE	TOGGLE	F	Ich Offset Enable
ICHOFFSET	QUANT	0	Ich Offset (V)
ICHFILTER	IQUANT	2	Ich Filter
VCHRANGE	IQUANT	2	Vch Range
VCHRANGEMODE	TOGGLE	F	Vch Auto Range
VCHOFFSETENABLE	TOGGLE	F	Vch Offset Enable
VCHOFFSET	QUANT	0	Vch Offset (V)
VCHFILTER	IQUANT	2	Vch Filter
ACHRANGE	IQUANT	2	Ach Range
ACHOFFSETENABLE	TOGGLE	F	Ach Offset Enable
ACHOFFSET	QUANT	0	Ach Offset (V)
ACHFILTER	IQUANT	1	Ach Filter
IERANGELOWERLIMIT	IQUANT	1	I/E Range Lower Limit
IERANGEMODE	TOGGLE	F	I/E AutoRange
IERANGE	IQUANT	6	I/E Range
POSFEEDENABLE	TOGGLE	F	Positive Feedback IR Comp
POSFEEDRESISTANCE	QUANT	0	Positive Feedback Resistance (ohm)
ACHSELECT	IQUANT	0	Ach Select
SENSECABLEID	IQUANT	13	Sense Cable ID
PWRCABLEID	IQUANT	13	Power Cable ID
DCCALDATE	LABEL	6/30/2020	DC Calibration Date
ACCALDATE	LABEL	6/30/2020	AC Calibration Date
THERMOSELECT	IQUANT	1	Thermo Select
FRAMEWORKVERSION	LABEL	7.8.2	Framework Version
INSTRUMENTVERSION	LABEL	4.40	Instrument Version
CURVE	TABLE	101
	Pt	T	Vfwd	Vrev	Vstep	Ifwd	Irev	Idif	Sig	Ach	IERange	Over	Temp
	#	s	V	V	V	A	A	A	V	V	#	bits	deg C
	0	0.1	-3.24797E-001	-3.74863E-001	-3.49830E-001	-1.25450E-008	-4.51432E-008	3.25981E-008	-3.75000E-001	4.03706E-004	6	..........a	-327.68
	1	0.2	-3.22834E-001	-3.72852E-001	-3.47843E-001	4.78978E-010	-4.00248E-008	4.05038E-008	-3.73000E-001	3.80373E-004	6	..........a	-327.68
	2	0.3	-3.20873E-001	-3.70742E-001	-3.45808E-001	2.54724E-009	-3.79879E-008	4.05352E-008	-3.71000E-001	3.83539E-004	6	..........a	-327.68
	3	0.4	-3.18893E-001	-3.68819E-001	-3.43856E-001	3.80040E-009	-3.67131E-008	4.05135E-008	-3.69000E-001	3.98373E-004	6	..........a	-327.68
	4	0.5	-3.16809E-001	-3.66916E-001	-3.41862E-001	4.63717E-009	-3.57686E-008	4.04058E-008	-3.67000E-001	3.85873E-004	6	..........a	-327.68
	5	0.6	-3.14869E-001	-3.64849E-001	-3.39859E-001	5.34060E-009	-3.50145E-008	4.03551E-008	-3.65000E-001	3.93539E-004	6	..........a	-327.68
	6	0.7	-3.12891E-001	-3.62800E-001	-3.37846E-001	5.77232E-009	-3.41068E-008	3.98791E-008	-3.63000E-001	3.96039E-004	6	..........a	-327.68
	7	0.8	-3.10875E-001	-3.60839E-001	-3.35857E-001	6.23538E-009	-3.35140E-008	3.97494E-008	-3.61000E-001	3.92373E-004	6	..........a	-327.68
	8	0.9	-3.08799E-001	-3.58834E-001	-3.33816E-001	6.62709E-009	-3.31756E-008	3.98027E-008	-3.59000E-001	3.93373E-004	6	..........a	-327.68
	9	1	-3.06818E-001	-3.56777E-001	-3.31797E-001	6.98214E-009	-3.24499E-008	3.94320E-008	-3.57000E-001	3.85039E-004	6	..........a	-327.68
	10	1.1	-3.04839E-001	-3.54812E-001	-3.29826E-001	7.56721E-009	-3.19902E-008	3.95574E-008	-3.55000E-001	3.84206E-004	6	..........a	-327.68
	11	1.2	-3.02883E-001	-3.52864E-001	-3.27874E-001	7.75024E-009	-3.14457E-008	3.91960E-008	-3.53000E-001	3.94873E-004	6	..........a	-327.68
	12	1.3	-3.00854E-001	-3.50857E-001	-3.25855E-001	8.20229E-009	-3.11057E-008	3.93080E-008	-3.51000E-001	3.92039E-004	6	..........a	-327.68
	13	1.4	-2.98829E-001	-3.48858E-001	-3.23844E-001	8.53634E-009	-3.05973E-008	3.91336E-008	-3.49000E-001	3.85539E-004	6	..........a	-327.68
	14	1.5	-2.96871E-001	-3.46847E-001	-3.21859E-001	8.71336E-009	-3.00712E-008	3.87846E-008	-3.47000E-001	3.76039E-004	6	..........a	-327.68
	15	1.6	-2.94889E-001	-3.44882E-001	-3.19885E-001	9.14975E-009	-2.99412E-008	3.90910E-008	-3.45000E-001	3.83373E-004	6	..........a	-327.68
	16	1.7	-2.92678E-001	-3.42884E-001	-3.17781E-001	9.55013E-009	-2.93735E-008	3.89236E-008	-3.43000E-001	3.97706E-004	6	..........a	-327.68
	17	1.8	-2.90807E-001	-3.40847E-001	-3.15827E-001	9.73449E-009	-2.91838E-008	3.89183E-008	-3.41000E-001	3.88206E-004	6	..........a	-327.68
	18	1.9	-2.88882E-001	-3.38842E-001	-3.13862E-001	1.02252E-008	-2.89558E-008	3.91810E-008	-3.39000E-001	3.87706E-004	6	..........a	-327.68
	19	2	-2.86869E-001	-3.36834E-001	-3.11851E-001	1.04539E-008	-2.85370E-008	3.89910E-008	-3.37000E-001	3.85206E-004	6	..........a	-327.68
	20	2.1	-2.84783E-001	-3.34861E-001	-3.09822E-001	1.08173E-008	-2.83157E-008	3.91330E-008	-3.35000E-001	3.91039E-004	6	..........a	-327.68
	21	2.2	-2.82749E-001	-3.32830E-001	-3.07789E-001	1.12690E-008	-2.80387E-008	3.93077E-008	-3.33000E-001	3.81706E-004	6	..........a	-327.68
	22	2.3	-2.80853E-001	-3.30796E-001	-3.05824E-001	1.15014E-008	-2.79210E-008	3.94223E-008	-3.31000E-001	3.90706E-004	6	..........a	-327.68
	23	2.4	-2.78856E-001	-3.28851E-001	-3.03854E-001	1.19884E-008	-2.76373E-008	3.96257E-008	-3.29000E-001	3.91373E-004	6	..........a	-327.68
	24	2.5	-2.76779E-001	-3.26859E-001	-3.01819E-001	1.23662E-008	-2.74322E-008	3.97984E-008	-3.27000E-001	3.86873E-004	6	..........a	-327.68
	25	2.6	-2.74809E-001	-3.24836E-001	-2.99822E-001	1.27782E-008	-2.71715E-008	3.99497E-008	-3.25000E-001	3.95539E-004	6	..........a	-327.68
	26	2.7	-2.72850E-001	-3.22834E-001	-2.97842E-001	1.29289E-008	-2.71299E-008	4.00588E-008	-3.23000E-001	3.87873E-004	6	..........a	-327.68
	27	2.8	-2.70879E-001	-3.20856E-001	-2.95868E-001	1.32893E-008	-2.69485E-008	4.02378E-008	-3.21000E-001	3.84373E-004	6	..........a	-327.68
	28	2.9	-2.68862E-001	-3.18912E-001	-2.93887E-001	1.35656E-008	-2.70212E-008	4.05868E-008	-3.19000E-001	3.84706E-004	6	..........a	-327.68
	29	3	-2.66754E-001	-3.16884E-001	-2.91819E-001	1.38607E-008	-2.66685E-008	4.05292E-008	-3.17000E-001	4.00873E-004	6	..........a	-327.68
	30	3.1	-2.64881E-001	-3.14865E-001	-2.89873E-001	1.42687E-008	-2.67208E-008	4.09895E-008	-3.15000E-001	3.97039E-004	6	..........a	-327.68
	31	3.2	-2.62901E-001	-3.12890E-001	-2.87895E-001	1.45008E-008	-2.64208E-008	4.09215E-008	-3.13000E-001	3.94206E-004	6	..........a	-327.68
	32	3.3	-2.60729E-001	-3.10863E-001	-2.85796E-001	1.49408E-008	-2.66231E-008	4.15640E-008	-3.11000E-001	4.00873E-004	6	..........a	-327.68
	33	3.4	-2.58811E-001	-3.08780E-001	-2.83796E-001	1.51552E-008	-2.65381E-008	4.16933E-008	-3.09000E-001	3.87206E-004	6	..........a	-327.68
	34	3.5	-2.56818E-001	-3.06819E-001	-2.81818E-001	1.54669E-008	-2.62561E-008	4.17230E-008	-3.07000E-001	4.03039E-004	6	..........a	-327.68
	35	3.6	-2.54888E-001	-3.04858E-001	-2.79873E-001	1.57783E-008	-2.63924E-008	4.21707E-008	-3.05000E-001	4.06206E-004	6	..........a	-327.68
	36	3.7	-2.52830E-001	-3.02884E-001	-2.77857E-001	1.59236E-008	-2.65158E-008	4.24394E-008	-3.03000E-001	4.03873E-004	6	..........a	-327.68
	37	3.8	-2.50808E-001	-3.00868E-001	-2.75838E-001	1.60756E-008	-2.63191E-008	4.23947E-008	-3.01000E-001	3.97873E-004	6	..........a	-327.68
	38	3.9	-2.48864E-001	-2.98827E-001	-2.73846E-001	1.65337E-008	-2.65295E-008	4.30631E-008	-2.99000E-001	3.96206E-004	6	..........a	-327.68
	39	4	-2.46876E-001	-2.96866E-001	-2.71871E-001	1.64273E-008	-2.64268E-008	4.28541E-008	-2.97000E-001	3.90039E-004	6	..........a	-327.68
	40	4.1	-2.44851E-001	-2.94851E-001	-2.69851E-001	1.66074E-008	-2.64214E-008	4.30288E-008	-2.95000E-001	3.88039E-004	6	..........a	-327.68
	41	4.2	-2.42744E-001	-2.92732E-001	-2.67738E-001	1.67417E-008	-2.62631E-008	4.30048E-008	-2.93000E-001	3.99373E-004	6	..........a	-327.68
	42	4.3	-2.40804E-001	-2.90829E-001	-2.65816E-001	1.67170E-008	-2.62301E-008	4.29471E-008	-2.91000E-001	3.82706E-004	6	..........a	-327.68
	43	4.4	-2.38886E-001	-2.88898E-001	-2.63892E-001	1.65484E-008	-2.60131E-008	4.25614E-008	-2.89000E-001	3.85539E-004	6	..........a	-327.68
	44	4.5	-2.36838E-001	-2.86860E-001	-2.61849E-001	1.66944E-008	-2.58830E-008	4.25774E-008	-2.87000E-001	3.91873E-004	6	..........a	-327.68
	45	4.6	-2.34786E-001	-2.84859E-001	-2.59822E-001	1.66377E-008	-2.59571E-008	4.25948E-008	-2.85000E-001	3.91373E-004	6	..........a	-327.68
	46	4.7	-2.32834E-001	-2.82797E-001	-2.57816E-001	1.65500E-008	-2.57017E-008	4.22517E-008	-2.83000E-001	3.98873E-004	6	..........a	-327.68
	47	4.8	-2.30847E-001	-2.80887E-001	-2.55867E-001	1.66840E-008	-2.55103E-008	4.21944E-008	-2.81000E-001	3.81873E-004	6	..........a	-327.68
	48	4.9	-2.28762E-001	-2.78857E-001	-2.53810E-001	1.67494E-008	-2.53706E-008	4.21200E-008	-2.79000E-001	3.86873E-004	6	..........a	-327.68
	49	5	-2.26796E-001	-2.76823E-001	-2.51809E-001	1.65627E-008	-2.51543E-008	4.17170E-008	-2.77000E-001	3.83873E-004	6	..........a	-327.68
	50	5.1	-2.24837E-001	-2.74835E-001	-2.49836E-001	1.64563E-008	-2.49649E-008	4.14213E-008	-2.75000E-001	3.94039E-004	6	..........a	-327.68
	51	5.2	-2.22856E-001	-2.72860E-001	-2.47858E-001	1.64413E-008	-2.46456E-008	4.10869E-008	-2.73000E-001	3.94539E-004	6	..........a	-327.68
	52	5.3	-2.20845E-001	-2.70864E-001	-2.45854E-001	1.64547E-008	-2.43729E-008	4.08275E-008	-2.71000E-001	3.97706E-004	6	..........a	-327.68
	53	5.4	-2.18836E-001	-2.68861E-001	-2.43848E-001	1.62647E-008	-2.39401E-008	4.02048E-008	-2.69000E-001	3.79373E-004	6	..........a	-327.68
	54	5.5	-2.16818E-001	-2.66796E-001	-2.41807E-001	1.61850E-008	-2.37988E-008	3.99838E-008	-2.67000E-001	3.84873E-004	6	..........a	-327.68
	55	5.6	-2.14855E-001	-2.64893E-001	-2.39874E-001	1.62280E-008	-2.34621E-008	3.96900E-008	-2.65000E-001	4.05873E-004	6	..........a	-327.68
	56	5.7	-2.12782E-001	-2.62903E-001	-2.37843E-001	1.60816E-008	-2.30247E-008	3.91063E-008	-2.63000E-001	3.97539E-004	6	..........a	-327.68
	57	5.8	-2.10844E-001	-2.60790E-001	-2.35817E-001	1.62840E-008	-2.28300E-008	3.91140E-008	-2.61000E-001	3.76539E-004	6	..........a	-327.68
	58	5.9	-2.08815E-001	-2.58815E-001	-2.33815E-001	1.61510E-008	-2.24239E-008	3.85749E-008	-2.59000E-001	3.85873E-004	6	..........a	-327.68
	59	6	-2.06855E-001	-2.56849E-001	-2.31852E-001	1.60793E-008	-2.23266E-008	3.84059E-008	-2.57000E-001	3.96873E-004	6	..........a	-327.68
	60	6.1	-2.04809E-001	-2.54884E-001	-2.29847E-001	1.60780E-008	-2.17852E-008	3.78632E-008	-2.55000E-001	3.87706E-004	6	..........a	-327.68
	61	6.2	-2.02782E-001	-2.52843E-001	-2.27812E-001	1.60476E-008	-2.16225E-008	3.76701E-008	-2.53000E-001	3.95873E-004	6	..........a	-327.68
	62	6.3	-2.00854E-001	-2.50831E-001	-2.25843E-001	1.60273E-008	-2.14221E-008	3.74494E-008	-2.51000E-001	4.00206E-004	6	..........a	-327.68
	63	6.4	-1.98862E-001	-2.48869E-001	-2.23866E-001	1.59653E-008	-2.10521E-008	3.70174E-008	-2.49000E-001	3.89206E-004	6	..........a	-327.68
	64	6.5	-1.96812E-001	-2.46863E-001	-2.21838E-001	1.60080E-008	-2.08884E-008	3.68964E-008	-2.47000E-001	4.05039E-004	6	..........a	-327.68
	65	6.6	-1.94825E-001	-2.44858E-001	-2.19842E-001	1.60733E-008	-2.05154E-008	3.65887E-008	-2.45000E-001	4.00206E-004	6	..........a	-327.68
	66	6.7	-1.92857E-001	-2.42790E-001	-2.17823E-001	1.62193E-008	-2.02643E-008	3.64836E-008	-2.43000E-001	3.82706E-004	6	..........a	-327.68
	67	6.8	-1.90881E-001	-2.40858E-001	-2.15870E-001	1.60260E-008	-1.99006E-008	3.59266E-008	-2.41000E-001	4.09539E-004	6	..........a	-327.68
	68	6.9	-1.88834E-001	-2.38899E-001	-2.13866E-001	1.60396E-008	-1.97073E-008	3.57469E-008	-2.39000E-001	3.89706E-004	6	..........a	-327.68
	69	7	-1.86783E-001	-2.36870E-001	-2.11827E-001	1.60603E-008	-1.93986E-008	3.54588E-008	-2.37000E-001	3.92706E-004	6	..........a	-327.68
	70	7.1	-1.84871E-001	-2.34804E-001	-2.09837E-001	1.60216E-008	-1.92665E-008	3.52882E-008	-2.35000E-001	3.86039E-004	6	..........a	-327.68
	71	7.2	-1.82822E-001	-2.32842E-001	-2.07832E-001	1.61563E-008	-1.89202E-008	3.50765E-008	-2.33000E-001	3.91539E-004	6	..........a	-327.68
	72	7.3	-1.80750E-001	-2.30852E-001	-2.05801E-001	1.62056E-008	-1.88481E-008	3.50538E-008	-2.31000E-001	3.75206E-004	6	..........a	-327.68
	73	7.4	-1.78790E-001	-2.28769E-001	-2.03780E-001	1.60533E-008	-1.85588E-008	3.46121E-008	-2.29000E-001	3.90039E-004	6	..........a	-327.68
	74	7.5	-1.76794E-001	-2.26809E-001	-2.01801E-001	1.62997E-008	-1.83808E-008	3.46804E-008	-2.27000E-001	3.93706E-004	6	..........a	-327.68
	75	7.6	-1.74847E-001	-2.24844E-001	-1.99845E-001	1.62003E-008	-1.82917E-008	3.44921E-008	-2.25000E-001	3.98873E-004	6	..........a	-327.68
	76	7.7	-1.72814E-001	-2.22858E-001	-1.97836E-001	1.63463E-008	-1.81294E-008	3.44757E-008	-2.23000E-001	3.98373E-004	6	..........a	-327.68
	77	7.8	-1.70798E-001	-2.20848E-001	-1.95823E-001	1.63227E-008	-1.77943E-008	3.41170E-008	-2.21000E-001	3.89873E-004	6	..........a	-327.68
	78	7.9	-1.68841E-001	-2.18829E-001	-1.93835E-001	1.63757E-008	-1.76977E-008	3.40733E-008	-2.19000E-001	4.00539E-004	6	..........a	-327.68
	79	8	-1.66873E-001	-2.16889E-001	-1.91881E-001	1.63427E-008	-1.74920E-008	3.38346E-008	-2.17000E-001	3.85206E-004	6	..........a	-327.68
	80	8.1	-1.64702E-001	-2.14883E-001	-1.89792E-001	1.63697E-008	-1.72599E-008	3.36296E-008	-2.15000E-001	3.96873E-004	6	..........a	-327.68
	81	8.2	-1.62803E-001	-2.12851E-001	-1.87827E-001	1.64897E-008	-1.71186E-008	3.36083E-008	-2.13000E-001	3.89539E-004	6	..........a	-327.68
	82	8.3	-1.60884E-001	-2.10838E-001	-1.85861E-001	1.64193E-008	-1.70703E-008	3.34896E-008	-2.11000E-001	3.83039E-004	6	..........a	-327.68
	83	8.4	-1.58839E-001	-2.08845E-001	-1.83842E-001	1.64457E-008	-1.68936E-008	3.33392E-008	-2.09000E-001	3.92706E-004	6	..........a	-327.68
	84	8.5	-1.56795E-001	-2.06868E-001	-1.81831E-001	1.66104E-008	-1.69196E-008	3.35299E-008	-2.07000E-001	3.88873E-004	6	..........a	-327.68
	85	8.6	-1.54780E-001	-2.04821E-001	-1.79801E-001	1.65630E-008	-1.67992E-008	3.33622E-008	-2.05000E-001	3.84873E-004	6	..........a	-327.68
	86	8.7	-1.52858E-001	-2.02804E-001	-1.77831E-001	1.66200E-008	-1.65762E-008	3.31962E-008	-2.03000E-001	3.97873E-004	6	..........a	-327.68
	87	8.8	-1.50853E-001	-2.00856E-001	-1.75854E-001	1.67000E-008	-1.63938E-008	3.30939E-008	-2.01000E-001	3.99206E-004	6	..........a	-327.68
	88	8.9	-1.48800E-001	-1.98881E-001	-1.73841E-001	1.68354E-008	-1.62822E-008	3.31175E-008	-1.99000E-001	3.86706E-004	6	..........a	-327.68
	89	9	-1.46807E-001	-1.96847E-001	-1.71827E-001	1.69044E-008	-1.63772E-008	3.32816E-008	-1.97000E-001	3.94873E-004	6	..........a	-327.68
	90	9.1	-1.44841E-001	-1.94838E-001	-1.69840E-001	1.69481E-008	-1.63035E-008	3.32516E-008	-1.95000E-001	3.90206E-004	6	..........a	-327.68
	91	9.2	-1.42875E-001	-1.92855E-001	-1.67865E-001	1.69194E-008	-1.61178E-008	3.30372E-008	-1.93000E-001	3.90373E-004	6	..........a	-327.68
	92	9.3	-1.40852E-001	-1.90874E-001	-1.65863E-001	1.69811E-008	-1.59584E-008	3.29395E-008	-1.91000E-001	3.80873E-004	6	..........a	-327.68
	93	9.4	-1.38762E-001	-1.88795E-001	-1.63778E-001	1.69794E-008	-1.58131E-008	3.27925E-008	-1.89000E-001	3.83539E-004	6	..........a	-327.68
	94	9.5	-1.36858E-001	-1.86815E-001	-1.61836E-001	1.70828E-008	-1.56897E-008	3.27725E-008	-1.87000E-001	3.89539E-004	6	..........a	-327.68
	95	9.6	-1.34892E-001	-1.84882E-001	-1.59887E-001	1.71141E-008	-1.56714E-008	3.27855E-008	-1.85000E-001	3.99039E-004	6	..........a	-327.68
	96	9.7	-1.32756E-001	-1.82846E-001	-1.57801E-001	1.73608E-008	-1.57758E-008	3.31366E-008	-1.83000E-001	3.88873E-004	6	..........a	-327.68
	97	9.8	-1.30798E-001	-1.80758E-001	-1.55778E-001	1.71564E-008	-1.54634E-008	3.26198E-008	-1.81000E-001	3.92206E-004	6	..........a	-327.68
	98	9.9	-1.28813E-001	-1.78801E-001	-1.53807E-001	1.73025E-008	-1.53440E-008	3.26465E-008	-1.79000E-001	3.77873E-004	6	..........a	-327.68
	99	10	-1.26873E-001	-1.76833E-001	-1.51853E-001	1.73248E-008	-1.53840E-008	3.27088E-008	-1.77000E-001	3.96539E-004	6	..........a	-327.68
	100	10.1	-1.24812E-001	-1.74855E-001	-1.49834E-001	1.73185E-008	-1.53467E-008	3.26652E-008	-1.75000E-001	4.02539E-004	6	..........a	-327.68