File: Sample Data/Concentration Curve Data/C-COM2/SWV_10Hz STD2 100  fgml 081020_#9.DTA
EXPLAIN
TAG	SQUARE_WAVE
TITLE	LABEL	Square Wave Voltammetry	Test Identifier
DATE	LABEL	8/10/2020	Date
TIME	LABEL	20:44:10	Time
NOTES	NOTES	1	Notes...
	 STD2 100  fg/mL 08102
PSTAT	PSTAT	REF600-24079	Potentiostat
VINIT	QUANT	-3.50000E-001	Initial E (V)
VFINAL	QUANT	-1.50000E-001	Final E (V)
STEPSIZE	QUANT	2.00000E+000	Step Size (mV)
TIMERRES	QUANT	3.33340E-005	&Timer Resolution
FREQUENCY	QUANT	1.00000E+001	Frequency (Hz)
PULSESIZE	QUANT	2.50000E+001	Pulse Size E (mV)
PULSEON	QUANT	1.00000E-001	Pulse &Time (s)
NOISEREJECT	TOGGLE	F	Noise Rejection
AREA	QUANT	2.00000E-002	Sample Area (cm^2)
IMODE	SELECTOR	1	I/E Range Mode
IRANGE	QUANT	1.00000E-003	Max Current (mA)
EQDELAY	IQUANT	10	Equil. Time (s)
IRCOMP	SELECTOR	0	IRComp
PFCOR	QUANT	5.00000E+001	PF Corr. (ohm)
CYCLES	IQUANT	101	C&ycles (#)
ELECTRODETYPE	SELECTOR	0	Electrode Type
STRIPPING	TOGGLE	F	Used for Stripping
POLARITY	TOGGLE	F	Signal Polarity
LINEFREQ	IQUANT	60	Line Frequency (Hz)
INTPERIOD	QUANT	3.3334E-005	Integration Period (s)
SEQUENCER	TOGGLE	TRUE	Run as Sequence
PSTATMODEL	IQUANT	4	Pstat Model
PSTATSECTION	LABEL	REF600-24079	Pstat Section
PSTATSERIALNO	LABEL	24079	Pstat Serial Number
CTRLMODE	IQUANT	1	Control Mode
ELECTROMETER	IQUANT	0	RE=0 or CS=1
IESTAB	IQUANT	2	I/E Stability
CASPEED	IQUANT	6	Control Amp Speed
CONVENTION	IQUANT	1	Current Convention
ICHRANGE	IQUANT	2	Ich Range
ICHRANGEMODE	TOGGLE	F	Ich Auto Range
ICHOFFSETENABLE	TOGGLE	F	Ich Offset Enable
ICHOFFSET	QUANT	0	Ich Offset (V)
ICHFILTER	IQUANT	2	Ich Filter
VCHRANGE	IQUANT	2	Vch Range
VCHRANGEMODE	TOGGLE	F	Vch Auto Range
VCHOFFSETENABLE	TOGGLE	F	Vch Offset Enable
VCHOFFSET	QUANT	0	Vch Offset (V)
VCHFILTER	IQUANT	2	Vch Filter
ACHRANGE	IQUANT	2	Ach Range
ACHOFFSETENABLE	TOGGLE	F	Ach Offset Enable
ACHOFFSET	QUANT	0	Ach Offset (V)
ACHFILTER	IQUANT	1	Ach Filter
IERANGELOWERLIMIT	IQUANT	1	I/E Range Lower Limit
IERANGEMODE	TOGGLE	F	I/E AutoRange
IERANGE	IQUANT	6	I/E Range
POSFEEDENABLE	TOGGLE	F	Positive Feedback IR Comp
POSFEEDRESISTANCE	QUANT	0	Positive Feedback Resistance (ohm)
ACHSELECT	IQUANT	0	Ach Select
SENSECABLEID	IQUANT	13	Sense Cable ID
PWRCABLEID	IQUANT	13	Power Cable ID
DCCALDATE	LABEL	6/30/2020	DC Calibration Date
ACCALDATE	LABEL	6/30/2020	AC Calibration Date
THERMOSELECT	IQUANT	1	Thermo Select
FRAMEWORKVERSION	LABEL	7.8.2	Framework Version
INSTRUMENTVERSION	LABEL	4.40	Instrument Version
CURVE	TABLE	101
	Pt	T	Vfwd	Vrev	Vstep	Ifwd	Irev	Idif	Sig	Ach	IERange	Over	Temp
	#	s	V	V	V	A	A	A	V	V	#	bits	deg C
	0	0.1	-3.24880E-001	-3.74895E-001	-3.49888E-001	-8.88647E-008	-1.81256E-007	9.23914E-008	-3.75000E-001	3.55539E-004	6	..........a	-327.68
	1	0.2	-3.22879E-001	-3.72918E-001	-3.47899E-001	-7.35131E-008	-1.73600E-007	1.00087E-007	-3.73000E-001	3.89539E-004	6	..........a	-327.68
	2	0.3	-3.20888E-001	-3.70801E-001	-3.45844E-001	-6.93242E-008	-1.68912E-007	9.95873E-008	-3.71000E-001	3.94539E-004	6	..........a	-327.68
	3	0.4	-3.18941E-001	-3.68947E-001	-3.43944E-001	-6.63492E-008	-1.64996E-007	9.86469E-008	-3.69000E-001	3.96706E-004	6	..........a	-327.68
	4	0.5	-3.16801E-001	-3.66937E-001	-3.41869E-001	-6.41256E-008	-1.61477E-007	9.73510E-008	-3.67000E-001	3.79706E-004	6	..........a	-327.68
	5	0.6	-3.14899E-001	-3.64908E-001	-3.39903E-001	-6.18663E-008	-1.58010E-007	9.61436E-008	-3.65000E-001	3.71873E-004	6	..........a	-327.68
	6	0.7	-3.12908E-001	-3.62831E-001	-3.37870E-001	-5.98094E-008	-1.54609E-007	9.47997E-008	-3.63000E-001	3.77039E-004	6	..........a	-327.68
	7	0.8	-3.10892E-001	-3.60899E-001	-3.35896E-001	-5.78608E-008	-1.51722E-007	9.38609E-008	-3.61000E-001	3.76873E-004	6	..........a	-327.68
	8	0.9	-3.08876E-001	-3.58905E-001	-3.33890E-001	-5.57532E-008	-1.48735E-007	9.29818E-008	-3.59000E-001	3.67039E-004	6	..........a	-327.68
	9	1	-3.06849E-001	-3.56882E-001	-3.31866E-001	-5.38216E-008	-1.45702E-007	9.18804E-008	-3.57000E-001	3.66539E-004	6	..........a	-327.68
	10	1.1	-3.04906E-001	-3.54844E-001	-3.29875E-001	-5.18433E-008	-1.42643E-007	9.07999E-008	-3.55000E-001	3.54206E-004	6	..........a	-327.68
	11	1.2	-3.02909E-001	-3.52900E-001	-3.27904E-001	-5.03208E-008	-1.39686E-007	8.93650E-008	-3.53000E-001	3.70039E-004	6	..........a	-327.68
	12	1.3	-3.00898E-001	-3.50900E-001	-3.25899E-001	-4.82256E-008	-1.36765E-007	8.85396E-008	-3.51000E-001	3.76206E-004	6	..........a	-327.68
	13	1.4	-2.98868E-001	-3.48901E-001	-3.23884E-001	-4.67190E-008	-1.34095E-007	8.73758E-008	-3.49000E-001	3.67873E-004	6	..........a	-327.68
	14	1.5	-2.96888E-001	-3.46874E-001	-3.21881E-001	-4.49001E-008	-1.31417E-007	8.65170E-008	-3.47000E-001	3.63039E-004	6	..........a	-327.68
	15	1.6	-2.94881E-001	-3.44947E-001	-3.19914E-001	-4.31126E-008	-1.28703E-007	8.55905E-008	-3.45000E-001	3.73039E-004	6	..........a	-327.68
	16	1.7	-2.92751E-001	-3.42929E-001	-3.17840E-001	-4.15110E-008	-1.26276E-007	8.47651E-008	-3.43000E-001	3.66873E-004	6	..........a	-327.68
	17	1.8	-2.90830E-001	-3.40903E-001	-3.15866E-001	-3.96828E-008	-1.23799E-007	8.41164E-008	-3.41000E-001	3.74873E-004	6	..........a	-327.68
	18	1.9	-2.88928E-001	-3.38866E-001	-3.13897E-001	-3.81043E-008	-1.21112E-007	8.30082E-008	-3.39000E-001	3.69873E-004	6	..........a	-327.68
	19	2	-2.86904E-001	-3.36906E-001	-3.11905E-001	-3.64811E-008	-1.18467E-007	8.19861E-008	-3.37000E-001	3.74206E-004	6	..........a	-327.68
	20	2.1	-2.84811E-001	-3.34918E-001	-3.09864E-001	-3.49319E-008	-1.16216E-007	8.12840E-008	-3.35000E-001	3.71206E-004	6	..........a	-327.68
	21	2.2	-2.82834E-001	-3.32839E-001	-3.07836E-001	-3.33517E-008	-1.13874E-007	8.05222E-008	-3.33000E-001	3.75039E-004	6	..........a	-327.68
	22	2.3	-2.80907E-001	-3.30846E-001	-3.05876E-001	-3.16671E-008	-1.11707E-007	8.00402E-008	-3.31000E-001	3.81706E-004	6	..........a	-327.68
	23	2.4	-2.78908E-001	-3.28907E-001	-3.03908E-001	-3.01493E-008	-1.09422E-007	7.92724E-008	-3.29000E-001	3.75873E-004	6	..........a	-327.68
	24	2.5	-2.76880E-001	-3.26899E-001	-3.01889E-001	-2.88394E-008	-1.07243E-007	7.84033E-008	-3.27000E-001	3.72373E-004	6	..........a	-327.68
	25	2.6	-2.74863E-001	-3.24891E-001	-2.99877E-001	-2.71902E-008	-1.04834E-007	7.76435E-008	-3.25000E-001	3.84373E-004	6	..........a	-327.68
	26	2.7	-2.72893E-001	-3.22878E-001	-2.97886E-001	-2.57854E-008	-1.02857E-007	7.70711E-008	-3.23000E-001	3.52373E-004	6	..........a	-327.68
	27	2.8	-2.70884E-001	-3.20900E-001	-2.95892E-001	-2.42005E-008	-1.01108E-007	7.69071E-008	-3.21000E-001	3.66039E-004	6	..........a	-327.68
	28	2.9	-2.68897E-001	-3.18940E-001	-2.93918E-001	-2.29163E-008	-9.88830E-008	7.59667E-008	-3.19000E-001	3.83873E-004	6	..........a	-327.68
	29	3	-2.66811E-001	-3.16838E-001	-2.91824E-001	-2.15452E-008	-9.70261E-008	7.54809E-008	-3.17000E-001	3.69373E-004	6	..........a	-327.68
	30	3.1	-2.64925E-001	-3.14911E-001	-2.89918E-001	-2.02463E-008	-9.50795E-008	7.48332E-008	-3.15000E-001	3.71706E-004	6	..........a	-327.68
	31	3.2	-2.62911E-001	-3.12927E-001	-2.87919E-001	-1.88558E-008	-9.31079E-008	7.42521E-008	-3.13000E-001	3.70873E-004	6	..........a	-327.68
	32	3.3	-2.60796E-001	-3.10914E-001	-2.85855E-001	-1.74193E-008	-9.14140E-008	7.39947E-008	-3.11000E-001	3.75039E-004	6	..........a	-327.68
	33	3.4	-2.58839E-001	-3.08802E-001	-2.83821E-001	-1.62301E-008	-8.95671E-008	7.33370E-008	-3.09000E-001	3.69706E-004	6	..........a	-327.68
	34	3.5	-2.56884E-001	-3.06850E-001	-2.81867E-001	-1.49253E-008	-8.81643E-008	7.32390E-008	-3.07000E-001	3.63706E-004	6	..........a	-327.68
	35	3.6	-2.54926E-001	-3.04913E-001	-2.79920E-001	-1.37305E-008	-8.60694E-008	7.23389E-008	-3.05000E-001	3.65873E-004	6	..........a	-327.68
	36	3.7	-2.52862E-001	-3.02924E-001	-2.77893E-001	-1.26857E-008	-8.47515E-008	7.20658E-008	-3.03000E-001	3.83039E-004	6	..........a	-327.68
	37	3.8	-2.50861E-001	-3.00899E-001	-2.75880E-001	-1.13882E-008	-8.29903E-008	7.16021E-008	-3.01000E-001	3.81206E-004	6	..........a	-327.68
	38	3.9	-2.48904E-001	-2.98876E-001	-2.73890E-001	-1.03091E-008	-8.13141E-008	7.10050E-008	-2.99000E-001	3.74873E-004	6	..........a	-327.68
	39	4	-2.46885E-001	-2.96895E-001	-2.71890E-001	-9.27460E-009	-7.98382E-008	7.05636E-008	-2.97000E-001	3.70206E-004	6	..........a	-327.68
	40	4.1	-2.44886E-001	-2.94881E-001	-2.69883E-001	-8.40148E-009	-7.84917E-008	7.00903E-008	-2.95000E-001	3.81539E-004	6	..........a	-327.68
	41	4.2	-2.42809E-001	-2.92802E-001	-2.67806E-001	-7.16466E-009	-7.69265E-008	6.97619E-008	-2.93000E-001	3.72706E-004	6	..........a	-327.68
	42	4.3	-2.40913E-001	-2.90836E-001	-2.65874E-001	-6.41157E-009	-7.55367E-008	6.91251E-008	-2.91000E-001	3.82206E-004	6	..........a	-327.68
	43	4.4	-2.38935E-001	-2.88942E-001	-2.63938E-001	-5.27442E-009	-7.39298E-008	6.86554E-008	-2.89000E-001	3.80873E-004	6	..........a	-327.68
	44	4.5	-2.36882E-001	-2.86900E-001	-2.61891E-001	-4.34930E-009	-7.26193E-008	6.82700E-008	-2.87000E-001	3.85706E-004	6	..........a	-327.68
	45	4.6	-2.34832E-001	-2.84887E-001	-2.59859E-001	-3.58054E-009	-7.13192E-008	6.77386E-008	-2.85000E-001	3.85873E-004	6	..........a	-327.68
	46	4.7	-2.32885E-001	-2.82850E-001	-2.57868E-001	-2.58641E-009	-7.00333E-008	6.74469E-008	-2.83000E-001	3.84873E-004	6	..........a	-327.68
	47	4.8	-2.30900E-001	-2.80945E-001	-2.55923E-001	-1.83065E-009	-6.86762E-008	6.68455E-008	-2.81000E-001	3.81539E-004	6	..........a	-327.68
	48	4.9	-2.28862E-001	-2.78904E-001	-2.53883E-001	-9.29535E-010	-6.74343E-008	6.65048E-008	-2.79000E-001	3.74206E-004	6	..........a	-327.68
	49	5	-2.26845E-001	-2.76871E-001	-2.51858E-001	-3.83799E-010	-6.59815E-008	6.55977E-008	-2.77000E-001	3.79039E-004	6	..........a	-327.68
	50	5.1	-2.24886E-001	-2.74867E-001	-2.49876E-001	3.31959E-010	-6.47023E-008	6.50343E-008	-2.75000E-001	3.80373E-004	6	..........a	-327.68
	51	5.2	-2.22892E-001	-2.72888E-001	-2.47890E-001	1.08472E-009	-6.33515E-008	6.44362E-008	-2.73000E-001	3.85706E-004	6	..........a	-327.68
	52	5.3	-2.20886E-001	-2.70877E-001	-2.45881E-001	1.65013E-009	-6.21743E-008	6.38245E-008	-2.71000E-001	3.95206E-004	6	..........a	-327.68
	53	5.4	-2.18876E-001	-2.68877E-001	-2.43876E-001	2.42723E-009	-6.07538E-008	6.31810E-008	-2.69000E-001	3.74373E-004	6	..........a	-327.68
	54	5.5	-2.16916E-001	-2.66814E-001	-2.41865E-001	2.89795E-009	-5.96603E-008	6.25583E-008	-2.67000E-001	3.63706E-004	6	..........a	-327.68
	55	5.6	-2.14940E-001	-2.64932E-001	-2.39936E-001	3.57704E-009	-5.85259E-008	6.21029E-008	-2.65000E-001	3.88206E-004	6	..........a	-327.68
	56	5.7	-2.12879E-001	-2.62875E-001	-2.37877E-001	4.11911E-009	-5.73367E-008	6.14558E-008	-2.63000E-001	3.89206E-004	6	..........a	-327.68
	57	5.8	-2.10880E-001	-2.60888E-001	-2.35884E-001	4.54216E-009	-5.61002E-008	6.06424E-008	-2.61000E-001	3.83206E-004	6	..........a	-327.68
	58	5.9	-2.08894E-001	-2.58845E-001	-2.33869E-001	5.21825E-009	-5.49711E-008	6.01893E-008	-2.59000E-001	3.72039E-004	6	..........a	-327.68
	59	6	-2.06921E-001	-2.56891E-001	-2.31906E-001	5.59830E-009	-5.36312E-008	5.92295E-008	-2.57000E-001	3.76706E-004	6	..........a	-327.68
	60	6.1	-2.04845E-001	-2.54907E-001	-2.29876E-001	6.27672E-009	-5.27541E-008	5.90308E-008	-2.55000E-001	3.71039E-004	6	..........a	-327.68
	61	6.2	-2.02832E-001	-2.52889E-001	-2.27861E-001	6.65476E-009	-5.14696E-008	5.81244E-008	-2.53000E-001	3.63873E-004	6	..........a	-327.68
	62	6.3	-2.00893E-001	-2.50862E-001	-2.25878E-001	7.13049E-009	-5.03225E-008	5.74530E-008	-2.51000E-001	3.63373E-004	6	..........a	-327.68
	63	6.4	-1.98916E-001	-2.48907E-001	-2.23911E-001	7.78024E-009	-4.96784E-008	5.74586E-008	-2.49000E-001	3.65706E-004	6	..........a	-327.68
	64	6.5	-1.96885E-001	-2.46890E-001	-2.21887E-001	8.23096E-009	-4.84032E-008	5.66342E-008	-2.47000E-001	3.66373E-004	6	..........a	-327.68
	65	6.6	-1.94863E-001	-2.44888E-001	-2.19876E-001	8.71403E-009	-4.74981E-008	5.62122E-008	-2.45000E-001	3.84206E-004	6	..........a	-327.68
	66	6.7	-1.92899E-001	-2.42808E-001	-2.17853E-001	9.07174E-009	-4.64950E-008	5.55667E-008	-2.43000E-001	3.47706E-004	6	..........a	-327.68
	67	6.8	-1.90937E-001	-2.40935E-001	-2.15936E-001	9.55447E-009	-4.54809E-008	5.50353E-008	-2.41000E-001	3.62539E-004	6	..........a	-327.68
	68	6.9	-1.88747E-001	-2.38933E-001	-2.13840E-001	1.00595E-008	-4.45964E-008	5.46560E-008	-2.39000E-001	3.58706E-004	6	..........a	-327.68
	69	7	-1.86827E-001	-2.36899E-001	-2.11863E-001	1.02749E-008	-4.38077E-008	5.40826E-008	-2.37000E-001	3.54206E-004	6	..........a	-327.68
	70	7.1	-1.84906E-001	-2.34849E-001	-2.09877E-001	1.09443E-008	-4.27172E-008	5.36615E-008	-2.35000E-001	3.63539E-004	6	..........a	-327.68
	71	7.2	-1.82893E-001	-2.32894E-001	-2.07893E-001	1.14844E-008	-4.21404E-008	5.36248E-008	-2.33000E-001	3.64373E-004	6	..........a	-327.68
	72	7.3	-1.80825E-001	-2.30901E-001	-2.05863E-001	1.15951E-008	-4.12690E-008	5.28641E-008	-2.31000E-001	3.62873E-004	6	..........a	-327.68
	73	7.4	-1.78816E-001	-2.28810E-001	-2.03813E-001	1.20158E-008	-4.02402E-008	5.22560E-008	-2.29000E-001	3.47539E-004	6	..........a	-327.68
	74	7.5	-1.76868E-001	-2.26840E-001	-2.01854E-001	1.25575E-008	-3.96035E-008	5.21610E-008	-2.27000E-001	3.56039E-004	6	..........a	-327.68
	75	7.6	-1.74905E-001	-2.24887E-001	-1.99896E-001	1.30386E-008	-3.89977E-008	5.20363E-008	-2.25000E-001	3.66539E-004	6	..........a	-327.68
	76	7.7	-1.72872E-001	-2.22890E-001	-1.97881E-001	1.33533E-008	-3.78859E-008	5.12392E-008	-2.23000E-001	3.71539E-004	6	..........a	-327.68
	77	7.8	-1.70857E-001	-2.20884E-001	-1.95871E-001	1.37010E-008	-3.72271E-008	5.09281E-008	-2.21000E-001	3.56873E-004	6	..........a	-327.68
	78	7.9	-1.68892E-001	-2.18884E-001	-1.93888E-001	1.41487E-008	-3.66471E-008	5.07958E-008	-2.19000E-001	3.69706E-004	6	..........a	-327.68
	79	8	-1.66904E-001	-2.16884E-001	-1.91894E-001	1.43654E-008	-3.57180E-008	5.00834E-008	-2.17000E-001	3.65039E-004	6	..........a	-327.68
	80	8.1	-1.64716E-001	-2.14954E-001	-1.89835E-001	1.48328E-008	-3.52296E-008	5.00624E-008	-2.15000E-001	3.48039E-004	6	..........a	-327.68
	81	8.2	-1.62819E-001	-2.12873E-001	-1.87846E-001	1.53542E-008	-3.45388E-008	4.98930E-008	-2.13000E-001	3.45706E-004	6	..........a	-327.68
	82	8.3	-1.60918E-001	-2.10889E-001	-1.85904E-001	1.54299E-008	-3.39941E-008	4.94240E-008	-2.11000E-001	3.54373E-004	6	..........a	-327.68
	83	8.4	-1.58914E-001	-2.08897E-001	-1.83905E-001	1.58569E-008	-3.33987E-008	4.92556E-008	-2.09000E-001	3.51206E-004	6	..........a	-327.68
	84	8.5	-1.56810E-001	-2.06914E-001	-1.81862E-001	1.61483E-008	-3.28336E-008	4.89819E-008	-2.07000E-001	3.49873E-004	6	..........a	-327.68
	85	8.6	-1.54824E-001	-2.04857E-001	-1.79840E-001	1.66047E-008	-3.22299E-008	4.88346E-008	-2.05000E-001	3.69873E-004	6	..........a	-327.68
	86	8.7	-1.52908E-001	-2.02850E-001	-1.77879E-001	1.68894E-008	-3.16201E-008	4.85095E-008	-2.03000E-001	3.47039E-004	6	..........a	-327.68
	87	8.8	-1.50902E-001	-2.00906E-001	-1.75904E-001	1.70938E-008	-3.13064E-008	4.84002E-008	-2.01000E-001	3.49873E-004	6	..........a	-327.68
	88	8.9	-1.48865E-001	-1.98911E-001	-1.73888E-001	1.74645E-008	-3.05040E-008	4.79684E-008	-1.99000E-001	3.59539E-004	6	..........a	-327.68
	89	9	-1.46852E-001	-1.96894E-001	-1.71873E-001	1.77595E-008	-3.02409E-008	4.80004E-008	-1.97000E-001	3.59873E-004	6	..........a	-327.68
	90	9.1	-1.44888E-001	-1.94878E-001	-1.69883E-001	1.80689E-008	-2.97629E-008	4.78318E-008	-1.95000E-001	3.65539E-004	6	..........a	-327.68
	91	9.2	-1.42902E-001	-1.92899E-001	-1.67900E-001	1.83866E-008	-2.94175E-008	4.78041E-008	-1.93000E-001	3.59039E-004	6	..........a	-327.68
	92	9.3	-1.40891E-001	-1.90952E-001	-1.65921E-001	1.86456E-008	-2.88328E-008	4.74784E-008	-1.91000E-001	3.69706E-004	6	..........a	-327.68
	93	9.4	-1.38796E-001	-1.88810E-001	-1.63803E-001	1.92777E-008	-2.84210E-008	4.76987E-008	-1.89000E-001	3.62039E-004	6	..........a	-327.68
	94	9.5	-1.36899E-001	-1.86857E-001	-1.61878E-001	1.91864E-008	-2.81083E-008	4.72947E-008	-1.87000E-001	3.72539E-004	6	..........a	-327.68
	95	9.6	-1.34915E-001	-1.84920E-001	-1.59918E-001	1.96037E-008	-2.76169E-008	4.72207E-008	-1.85000E-001	3.60373E-004	6	..........a	-327.68
	96	9.7	-1.32810E-001	-1.82903E-001	-1.57856E-001	1.99018E-008	-2.72259E-008	4.71277E-008	-1.83000E-001	3.54373E-004	6	..........a	-327.68
	97	9.8	-1.30832E-001	-1.80854E-001	-1.55843E-001	1.98818E-008	-2.67738E-008	4.66556E-008	-1.81000E-001	3.57206E-004	6	..........a	-327.68
	98	9.9	-1.28879E-001	-1.78839E-001	-1.53859E-001	2.04639E-008	-2.64274E-008	4.68913E-008	-1.79000E-001	3.59206E-004	6	..........a	-327.68
	99	10	-1.26912E-001	-1.76885E-001	-1.51899E-001	2.07199E-008	-2.60537E-008	4.67736E-008	-1.77000E-001	3.53873E-004	6	..........a	-327.68
	100	10.1	-1.24863E-001	-1.74904E-001	-1.49884E-001	2.10103E-008	-2.55457E-008	4.65559E-008	-1.75000E-001	3.67706E-004	6	..........a	-327.68