File: Sample Data/Concentration Curve Data/C-COM2/SWV_500Hz STD2 aptmch 081020.DTA
EXPLAIN
TAG	SQUARE_WAVE
TITLE	LABEL	Square Wave Voltammetry	Test Identifier
DATE	LABEL	8/10/2020	Date
TIME	LABEL	13:05:50	Time
NOTES	NOTES	1	Notes...

PSTAT	PSTAT	REF600-24079	Potentiostat
VINIT	QUANT	-3.50000E-001	Initial E (V)
VFINAL	QUANT	-1.50000E-001	Final E (V)
STEPSIZE	QUANT	2.00000E+000	Step Size (mV)
TIMERRES	QUANT	3.33340E-005	&Timer Resolution
FREQUENCY	QUANT	5.00000E+002	Frequency (Hz)
PULSESIZE	QUANT	2.50000E+001	Pulse Size E (mV)
PULSEON	QUANT	2.00000E-003	Pulse &Time (s)
NOISEREJECT	TOGGLE	F	Noise Rejection
AREA	QUANT	2.00000E-002	Sample Area (cm^2)
IMODE	SELECTOR	1	I/E Range Mode
IRANGE	QUANT	1.00000E-002	Max Current (mA)
EQDELAY	IQUANT	10	Equil. Time (s)
IRCOMP	SELECTOR	0	IRComp
PFCOR	QUANT	5.00000E+001	PF Corr. (ohm)
CYCLES	IQUANT	101	C&ycles (#)
ELECTRODETYPE	SELECTOR	0	Electrode Type
STRIPPING	TOGGLE	F	Used for Stripping
POLARITY	TOGGLE	F	Signal Polarity
LINEFREQ	IQUANT	60	Line Frequency (Hz)
INTPERIOD	QUANT	3.3334E-005	Integration Period (s)
SEQUENCER	TOGGLE	TRUE	Run as Sequence
PSTATMODEL	IQUANT	4	Pstat Model
PSTATSECTION	LABEL	REF600-24079	Pstat Section
PSTATSERIALNO	LABEL	24079	Pstat Serial Number
CTRLMODE	IQUANT	1	Control Mode
ELECTROMETER	IQUANT	0	RE=0 or CS=1
IESTAB	IQUANT	2	I/E Stability
CASPEED	IQUANT	6	Control Amp Speed
CONVENTION	IQUANT	1	Current Convention
ICHRANGE	IQUANT	2	Ich Range
ICHRANGEMODE	TOGGLE	F	Ich Auto Range
ICHOFFSETENABLE	TOGGLE	F	Ich Offset Enable
ICHOFFSET	QUANT	0	Ich Offset (V)
ICHFILTER	IQUANT	1	Ich Filter
VCHRANGE	IQUANT	2	Vch Range
VCHRANGEMODE	TOGGLE	F	Vch Auto Range
VCHOFFSETENABLE	TOGGLE	F	Vch Offset Enable
VCHOFFSET	QUANT	0	Vch Offset (V)
VCHFILTER	IQUANT	1	Vch Filter
ACHRANGE	IQUANT	2	Ach Range
ACHOFFSETENABLE	TOGGLE	F	Ach Offset Enable
ACHOFFSET	QUANT	0	Ach Offset (V)
ACHFILTER	IQUANT	1	Ach Filter
IERANGELOWERLIMIT	IQUANT	1	I/E Range Lower Limit
IERANGEMODE	TOGGLE	F	I/E AutoRange
IERANGE	IQUANT	7	I/E Range
POSFEEDENABLE	TOGGLE	F	Positive Feedback IR Comp
POSFEEDRESISTANCE	QUANT	0	Positive Feedback Resistance (ohm)
ACHSELECT	IQUANT	0	Ach Select
SENSECABLEID	IQUANT	13	Sense Cable ID
PWRCABLEID	IQUANT	13	Power Cable ID
DCCALDATE	LABEL	6/30/2020	DC Calibration Date
ACCALDATE	LABEL	6/30/2020	AC Calibration Date
THERMOSELECT	IQUANT	1	Thermo Select
FRAMEWORKVERSION	LABEL	7.8.2	Framework Version
INSTRUMENTVERSION	LABEL	4.40	Instrument Version
CURVE	TABLE	101
	Pt	T	Vfwd	Vrev	Vstep	Ifwd	Irev	Idif	Sig	Ach	IERange	Over	Temp
	#	s	V	V	V	A	A	A	V	V	#	bits	deg C
	0	0.002	-3.25049E-001	-3.64216E-001	-3.44633E-001	7.17964E-008	-1.09762E-005	1.10480E-005	-3.75000E-001	2.91039E-004	7	..........a	-327.68
	1	0.004	-3.39374E-001	-3.59441E-001	-3.49408E-001	8.12706E-006	-6.97000E-006	1.50971E-005	-3.73000E-001	3.82706E-004	7	..........a	-327.68
	2	0.006	-3.34424E-001	-3.57199E-001	-3.45812E-001	7.89853E-006	-7.52824E-006	1.54268E-005	-3.71000E-001	4.07706E-004	7	..........a	-327.68
	3	0.008	-3.32783E-001	-3.55291E-001	-3.44037E-001	7.85002E-006	-7.44423E-006	1.52943E-005	-3.69000E-001	3.16039E-004	7	..........a	-327.68
	4	0.01	-3.30707E-001	-3.53308E-001	-3.42008E-001	7.88936E-006	-7.42973E-006	1.53191E-005	-3.67000E-001	3.41039E-004	7	..........a	-327.68
	5	0.012	-3.28757E-001	-3.51274E-001	-3.40016E-001	7.89386E-006	-7.42189E-006	1.53158E-005	-3.65000E-001	3.07706E-004	7	..........a	-327.68
	6	0.014	-3.26649E-001	-3.49257E-001	-3.37953E-001	7.90620E-006	-7.41356E-006	1.53198E-005	-3.63000E-001	3.57706E-004	7	..........a	-327.68
	7	0.016	-3.24824E-001	-3.47316E-001	-3.36070E-001	7.91086E-006	-7.40506E-006	1.53159E-005	-3.61000E-001	3.74373E-004	7	..........a	-327.68
	8	0.018	-3.22807E-001	-3.45358E-001	-3.34082E-001	7.91737E-006	-7.40256E-006	1.53199E-005	-3.59000E-001	3.24373E-004	7	..........a	-327.68
	9	0.02	-3.20749E-001	-3.43282E-001	-3.32016E-001	7.92303E-006	-7.39772E-006	1.53208E-005	-3.57000E-001	3.82706E-004	7	..........a	-327.68
	10	0.022	-3.18707E-001	-3.41249E-001	-3.29978E-001	7.92187E-006	-7.39755E-006	1.53194E-005	-3.55000E-001	3.16039E-004	7	..........a	-327.68
	11	0.024	-3.16833E-001	-3.39241E-001	-3.28037E-001	7.92720E-006	-7.38872E-006	1.53159E-005	-3.53000E-001	3.07706E-004	7	..........a	-327.68
	12	0.026	-3.14774E-001	-3.37249E-001	-3.26012E-001	7.93103E-006	-7.38622E-006	1.53173E-005	-3.51000E-001	3.82706E-004	7	..........a	-327.68
	13	0.028	-3.12799E-001	-3.35316E-001	-3.24058E-001	7.92887E-006	-7.38372E-006	1.53126E-005	-3.49000E-001	3.66039E-004	7	..........a	-327.68
	14	0.03	-3.10758E-001	-3.33224E-001	-3.21991E-001	7.94237E-006	-7.38022E-006	1.53226E-005	-3.47000E-001	3.57706E-004	7	..........a	-327.68
	15	0.032	-3.08674E-001	-3.31257E-001	-3.19966E-001	7.93553E-006	-7.37505E-006	1.53106E-005	-3.45000E-001	3.66039E-004	7	..........a	-327.68
	16	0.034	-3.06641E-001	-3.29282E-001	-3.17962E-001	7.93853E-006	-7.37572E-006	1.53143E-005	-3.43000E-001	3.07706E-004	7	..........a	-327.68
	17	0.036	-3.04691E-001	-3.27216E-001	-3.15953E-001	7.94137E-006	-7.37489E-006	1.53163E-005	-3.41000E-001	3.24373E-004	7	..........a	-327.68
	18	0.038	-3.02691E-001	-3.25341E-001	-3.14016E-001	7.93520E-006	-7.37072E-006	1.53059E-005	-3.39000E-001	3.07706E-004	7	..........a	-327.68
	19	0.04	-3.00724E-001	-3.23382E-001	-3.12053E-001	7.94337E-006	-7.36555E-006	1.53089E-005	-3.37000E-001	3.07706E-004	7	..........a	-327.68
	20	0.042	-2.98674E-001	-3.21224E-001	-3.09949E-001	7.94337E-006	-7.36188E-006	1.53053E-005	-3.35000E-001	3.99373E-004	7	..........a	-327.68
	21	0.044	-2.96741E-001	-3.19308E-001	-3.08024E-001	7.94904E-006	-7.36188E-006	1.53109E-005	-3.33000E-001	3.91039E-004	7	..........a	-327.68
	22	0.046	-2.94774E-001	-3.17257E-001	-3.06016E-001	7.94670E-006	-7.35855E-006	1.53053E-005	-3.31000E-001	3.32706E-004	7	..........a	-327.68
	23	0.048	-2.92657E-001	-3.15208E-001	-3.03932E-001	7.94920E-006	-7.35822E-006	1.53074E-005	-3.29000E-001	4.07706E-004	7	..........a	-327.68
	24	0.05	-2.90691E-001	-3.13299E-001	-3.01995E-001	7.94954E-006	-7.35688E-006	1.53064E-005	-3.27000E-001	3.41039E-004	7	..........a	-327.68
	25	0.052	-2.88691E-001	-3.11341E-001	-3.00016E-001	7.95187E-006	-7.35272E-006	1.53046E-005	-3.25000E-001	2.99373E-004	7	..........a	-327.68
	26	0.054	-2.86707E-001	-3.09308E-001	-2.98007E-001	7.94887E-006	-7.34755E-006	1.52964E-005	-3.23000E-001	3.66039E-004	7	..........a	-327.68
	27	0.056	-2.84683E-001	-3.07199E-001	-2.95941E-001	7.95354E-006	-7.34788E-006	1.53014E-005	-3.21000E-001	3.57706E-004	7	..........a	-327.68
	28	0.058	-2.82691E-001	-3.05341E-001	-2.94016E-001	7.95270E-006	-7.34688E-006	1.52996E-005	-3.19000E-001	3.91039E-004	7	..........a	-327.68
	29	0.06	-2.80741E-001	-3.03282E-001	-2.92012E-001	7.95554E-006	-7.34805E-006	1.53036E-005	-3.17000E-001	3.66039E-004	7	..........a	-327.68
	30	0.062	-2.78766E-001	-3.01241E-001	-2.90003E-001	7.95870E-006	-7.34071E-006	1.52994E-005	-3.15000E-001	3.07706E-004	7	..........a	-327.68
	31	0.064	-2.76716E-001	-2.99291E-001	-2.88003E-001	7.95537E-006	-7.34221E-006	1.52976E-005	-3.13000E-001	3.74373E-004	7	..........a	-327.68
	32	0.066	-2.74824E-001	-2.97274E-001	-2.86049E-001	7.95654E-006	-7.33788E-006	1.52944E-005	-3.11000E-001	2.91039E-004	7	..........a	-327.68
	33	0.068	-2.72741E-001	-2.95308E-001	-2.84024E-001	7.96054E-006	-7.33471E-006	1.52953E-005	-3.09000E-001	3.74373E-004	7	..........a	-327.68
	34	0.07	-2.70691E-001	-2.93399E-001	-2.82045E-001	7.95787E-006	-7.33455E-006	1.52924E-005	-3.07000E-001	3.32706E-004	7	..........a	-327.68
	35	0.072	-2.68724E-001	-2.91241E-001	-2.79983E-001	7.96420E-006	-7.33338E-006	1.52976E-005	-3.05000E-001	3.57706E-004	7	..........a	-327.68
	36	0.074	-2.66749E-001	-2.89308E-001	-2.78028E-001	7.95887E-006	-7.32921E-006	1.52881E-005	-3.03000E-001	3.32706E-004	7	..........a	-327.68
	37	0.076	-2.64866E-001	-2.87308E-001	-2.76087E-001	7.96454E-006	-7.32671E-006	1.52913E-005	-3.01000E-001	3.16039E-004	7	..........a	-327.68
	38	0.078	-2.62733E-001	-2.85274E-001	-2.74003E-001	7.96587E-006	-7.32555E-006	1.52914E-005	-2.99000E-001	3.57706E-004	7	..........a	-327.68
	39	0.08	-2.60724E-001	-2.83291E-001	-2.72008E-001	7.96754E-006	-7.31954E-006	1.52871E-005	-2.97000E-001	2.57706E-004	7	..........a	-327.68
	40	0.082	-2.58758E-001	-2.81224E-001	-2.69991E-001	7.96987E-006	-7.32488E-006	1.52948E-005	-2.95000E-001	4.07706E-004	7	..........a	-327.68
	41	0.084	-2.56674E-001	-2.79207E-001	-2.67941E-001	7.97004E-006	-7.32021E-006	1.52903E-005	-2.93000E-001	3.16039E-004	7	..........a	-327.68
	42	0.086	-2.54658E-001	-2.77308E-001	-2.65983E-001	7.96721E-006	-7.32038E-006	1.52876E-005	-2.91000E-001	3.57706E-004	7	..........a	-327.68
	43	0.088	-2.52807E-001	-2.75207E-001	-2.64008E-001	7.97237E-006	-7.31254E-006	1.52849E-005	-2.89000E-001	3.66039E-004	7	..........a	-327.68
	44	0.09	-2.50741E-001	-2.73333E-001	-2.62037E-001	7.97237E-006	-7.30988E-006	1.52823E-005	-2.87000E-001	3.66039E-004	7	..........a	-327.68
	45	0.092	-2.48774E-001	-2.71341E-001	-2.60058E-001	7.97221E-006	-7.30938E-006	1.52816E-005	-2.85000E-001	3.57706E-004	7	..........a	-327.68
	46	0.094	-2.46666E-001	-2.69282E-001	-2.57974E-001	7.97621E-006	-7.30654E-006	1.52827E-005	-2.83000E-001	2.91039E-004	7	..........a	-327.68
	47	0.096	-2.44674E-001	-2.67241E-001	-2.55958E-001	7.97354E-006	-7.30488E-006	1.52784E-005	-2.81000E-001	2.91039E-004	7	..........a	-327.68
	48	0.098	-2.42741E-001	-2.65249E-001	-2.53995E-001	7.97504E-006	-7.30504E-006	1.52801E-005	-2.79000E-001	3.57706E-004	7	..........a	-327.68
	49	0.1	-2.40741E-001	-2.63191E-001	-2.51966E-001	7.97237E-006	-7.30121E-006	1.52736E-005	-2.77000E-001	2.99373E-004	7	..........a	-327.68
	50	0.102	-2.38691E-001	-2.61191E-001	-2.49941E-001	7.97871E-006	-7.29788E-006	1.52766E-005	-2.75000E-001	3.49373E-004	7	..........a	-327.68
	51	0.104	-2.36691E-001	-2.59257E-001	-2.47974E-001	7.97937E-006	-7.29804E-006	1.52774E-005	-2.73000E-001	2.82706E-004	7	..........a	-327.68
	52	0.106	-2.34699E-001	-2.57408E-001	-2.46053E-001	7.97687E-006	-7.29671E-006	1.52736E-005	-2.71000E-001	3.24373E-004	7	..........a	-327.68
	53	0.108	-2.32783E-001	-2.55241E-001	-2.44012E-001	7.97987E-006	-7.29554E-006	1.52754E-005	-2.69000E-001	3.49373E-004	7	..........a	-327.68
	54	0.11	-2.30649E-001	-2.53291E-001	-2.41970E-001	7.97654E-006	-7.29037E-006	1.52669E-005	-2.67000E-001	3.57706E-004	7	..........a	-327.68
	55	0.112	-2.28683E-001	-2.51366E-001	-2.40024E-001	7.98021E-006	-7.29187E-006	1.52721E-005	-2.65000E-001	3.91039E-004	7	..........a	-327.68
	56	0.114	-2.26741E-001	-2.49308E-001	-2.38024E-001	7.97921E-006	-7.29121E-006	1.52704E-005	-2.63000E-001	3.16039E-004	7	..........a	-327.68
	57	0.116	-2.24758E-001	-2.47258E-001	-2.36008E-001	7.98121E-006	-7.28837E-006	1.52696E-005	-2.61000E-001	3.74373E-004	7	..........a	-327.68
	58	0.118	-2.22741E-001	-2.45199E-001	-2.33970E-001	7.98154E-006	-7.28537E-006	1.52669E-005	-2.59000E-001	3.24373E-004	7	..........a	-327.68
	59	0.12	-2.20724E-001	-2.43224E-001	-2.31974E-001	7.98121E-006	-7.28537E-006	1.52666E-005	-2.57000E-001	2.99373E-004	7	..........a	-327.68
	60	0.122	-2.18624E-001	-2.41258E-001	-2.29941E-001	7.97787E-006	-7.29087E-006	1.52687E-005	-2.55000E-001	3.41039E-004	7	..........a	-327.68
	61	0.124	-2.16741E-001	-2.39241E-001	-2.27991E-001	7.97804E-006	-7.28521E-006	1.52632E-005	-2.53000E-001	3.99373E-004	7	..........a	-327.68
	62	0.126	-2.14641E-001	-2.37299E-001	-2.25970E-001	7.98121E-006	-7.28471E-006	1.52659E-005	-2.51000E-001	3.16039E-004	7	..........a	-327.68
	63	0.128	-2.12724E-001	-2.35333E-001	-2.24028E-001	7.98137E-006	-7.28437E-006	1.52657E-005	-2.49000E-001	3.66039E-004	7	..........a	-327.68
	64	0.13	-2.10658E-001	-2.33283E-001	-2.21970E-001	7.98321E-006	-7.28454E-006	1.52677E-005	-2.47000E-001	3.99373E-004	7	..........a	-327.68
	65	0.132	-2.08674E-001	-2.31291E-001	-2.19983E-001	7.97904E-006	-7.28587E-006	1.52649E-005	-2.45000E-001	2.82706E-004	7	..........a	-327.68
	66	0.134	-2.06691E-001	-2.29241E-001	-2.17966E-001	7.98337E-006	-7.28421E-006	1.52676E-005	-2.43000E-001	3.82706E-004	7	..........a	-327.68
	67	0.136	-2.04683E-001	-2.27283E-001	-2.15983E-001	7.97837E-006	-7.28487E-006	1.52632E-005	-2.41000E-001	3.07706E-004	7	..........a	-327.68
	68	0.138	-2.02674E-001	-2.25274E-001	-2.13974E-001	7.98037E-006	-7.28287E-006	1.52632E-005	-2.39000E-001	3.07706E-004	7	..........a	-327.68
	69	0.14	-2.00741E-001	-2.23408E-001	-2.12074E-001	7.98054E-006	-7.27871E-006	1.52592E-005	-2.37000E-001	3.66039E-004	7	..........a	-327.68
	70	0.142	-1.98808E-001	-2.21391E-001	-2.10099E-001	7.97987E-006	-7.28304E-006	1.52629E-005	-2.35000E-001	4.16039E-004	7	..........a	-327.68
	71	0.144	-1.96658E-001	-2.19399E-001	-2.08028E-001	7.98271E-006	-7.28504E-006	1.52677E-005	-2.33000E-001	3.57706E-004	7	..........a	-327.68
	72	0.146	-1.94774E-001	-2.17324E-001	-2.06049E-001	7.97954E-006	-7.28421E-006	1.52637E-005	-2.31000E-001	3.49373E-004	7	..........a	-327.68
	73	0.148	-1.92691E-001	-2.15283E-001	-2.03987E-001	7.98221E-006	-7.28404E-006	1.52662E-005	-2.29000E-001	3.99373E-004	7	..........a	-327.68
	74	0.15	-1.90658E-001	-2.13433E-001	-2.02045E-001	7.97871E-006	-7.28604E-006	1.52647E-005	-2.27000E-001	2.66039E-004	7	..........a	-327.68
	75	0.152	-1.88741E-001	-2.11358E-001	-2.00049E-001	7.98054E-006	-7.28537E-006	1.52659E-005	-2.25000E-001	3.07706E-004	7	..........a	-327.68
	76	0.154	-1.86691E-001	-2.09333E-001	-1.98012E-001	7.98621E-006	-7.28071E-006	1.52669E-005	-2.23000E-001	3.49373E-004	7	..........a	-327.68
	77	0.156	-1.84683E-001	-2.07324E-001	-1.96003E-001	7.97904E-006	-7.28504E-006	1.52641E-005	-2.21000E-001	3.41039E-004	7	..........a	-327.68
	78	0.158	-1.82649E-001	-2.05333E-001	-1.93991E-001	7.98187E-006	-7.28737E-006	1.52692E-005	-2.19000E-001	3.16039E-004	7	..........a	-327.68
	79	0.16	-1.80699E-001	-2.03324E-001	-1.92012E-001	7.98087E-006	-7.28171E-006	1.52626E-005	-2.17000E-001	4.24373E-004	7	..........a	-327.68
	80	0.162	-1.78641E-001	-2.01358E-001	-1.89999E-001	7.98221E-006	-7.28504E-006	1.52672E-005	-2.15000E-001	3.82706E-004	7	..........a	-327.68
	81	0.164	-1.76641E-001	-1.99349E-001	-1.87995E-001	7.98321E-006	-7.28221E-006	1.52654E-005	-2.13000E-001	3.99373E-004	7	..........a	-327.68
	82	0.166	-1.74758E-001	-1.97324E-001	-1.86041E-001	7.98337E-006	-7.28304E-006	1.52664E-005	-2.11000E-001	3.41039E-004	7	..........a	-327.68
	83	0.168	-1.72708E-001	-1.95241E-001	-1.83974E-001	7.98237E-006	-7.28521E-006	1.52676E-005	-2.09000E-001	3.57706E-004	7	..........a	-327.68
	84	0.17	-1.70641E-001	-1.93483E-001	-1.82062E-001	7.98437E-006	-7.28471E-006	1.52691E-005	-2.07000E-001	3.16039E-004	7	..........a	-327.68
	85	0.172	-1.68641E-001	-1.91324E-001	-1.79983E-001	7.98104E-006	-7.28887E-006	1.52699E-005	-2.05000E-001	2.57706E-004	7	..........a	-327.68
	86	0.174	-1.66683E-001	-1.89374E-001	-1.78028E-001	7.98404E-006	-7.28687E-006	1.52709E-005	-2.03000E-001	3.41039E-004	7	..........a	-327.68
	87	0.176	-1.64541E-001	-1.87316E-001	-1.75928E-001	7.98488E-006	-7.28021E-006	1.52651E-005	-2.01000E-001	3.49373E-004	7	..........a	-327.68
	88	0.178	-1.62574E-001	-1.85449E-001	-1.74012E-001	7.98104E-006	-7.28587E-006	1.52669E-005	-1.99000E-001	3.16039E-004	7	..........a	-327.68
	89	0.18	-1.60674E-001	-1.83341E-001	-1.72008E-001	7.98371E-006	-7.28871E-006	1.52724E-005	-1.97000E-001	3.82706E-004	7	..........a	-327.68
	90	0.182	-1.58691E-001	-1.81299E-001	-1.69995E-001	7.98437E-006	-7.28154E-006	1.52659E-005	-1.95000E-001	3.07706E-004	7	..........a	-327.68
	91	0.184	-1.56624E-001	-1.79291E-001	-1.67958E-001	7.98738E-006	-7.28904E-006	1.52764E-005	-1.93000E-001	3.66039E-004	7	..........a	-327.68
	92	0.186	-1.54658E-001	-1.77266E-001	-1.65962E-001	7.98371E-006	-7.28837E-006	1.52721E-005	-1.91000E-001	3.99373E-004	7	..........a	-327.68
	93	0.188	-1.52674E-001	-1.75274E-001	-1.63974E-001	7.98587E-006	-7.28821E-006	1.52741E-005	-1.89000E-001	3.49373E-004	7	..........a	-327.68
	94	0.19	-1.50708E-001	-1.73308E-001	-1.62008E-001	7.98371E-006	-7.28604E-006	1.52697E-005	-1.87000E-001	3.07706E-004	7	..........a	-327.68
	95	0.192	-1.48641E-001	-1.71266E-001	-1.59953E-001	7.98504E-006	-7.28554E-006	1.52706E-005	-1.85000E-001	3.32706E-004	7	..........a	-327.68
	96	0.194	-1.46608E-001	-1.69458E-001	-1.58033E-001	7.98954E-006	-7.28871E-006	1.52782E-005	-1.83000E-001	3.16039E-004	7	..........a	-327.68
	97	0.196	-1.44691E-001	-1.67266E-001	-1.55978E-001	7.98571E-006	-7.28421E-006	1.52699E-005	-1.81000E-001	3.24373E-004	7	..........a	-327.68
	98	0.198	-1.42691E-001	-1.65274E-001	-1.53983E-001	7.98721E-006	-7.28454E-006	1.52717E-005	-1.79000E-001	2.66039E-004	7	..........a	-327.68
	99	0.2	-1.40666E-001	-1.63299E-001	-1.51983E-001	7.98504E-006	-7.28504E-006	1.52701E-005	-1.77000E-001	3.49373E-004	7	..........a	-327.68
	100	0.202	-1.38699E-001	-1.61249E-001	-1.49974E-001	7.98821E-006	-7.28437E-006	1.52726E-005	-1.75000E-001	3.41039E-004	7	..........a	-327.68