File: Sample Data/Concentration Curve Data/C-COM2/SWV_10Hz STD2 100  fgml 081020_#7.DTA
EXPLAIN
TAG	SQUARE_WAVE
TITLE	LABEL	Square Wave Voltammetry	Test Identifier
DATE	LABEL	8/10/2020	Date
TIME	LABEL	20:43:30	Time
NOTES	NOTES	1	Notes...
	 STD2 100  fg/mL 08102
PSTAT	PSTAT	REF600-24079	Potentiostat
VINIT	QUANT	-3.50000E-001	Initial E (V)
VFINAL	QUANT	-1.50000E-001	Final E (V)
STEPSIZE	QUANT	2.00000E+000	Step Size (mV)
TIMERRES	QUANT	3.33340E-005	&Timer Resolution
FREQUENCY	QUANT	1.00000E+001	Frequency (Hz)
PULSESIZE	QUANT	2.50000E+001	Pulse Size E (mV)
PULSEON	QUANT	1.00000E-001	Pulse &Time (s)
NOISEREJECT	TOGGLE	F	Noise Rejection
AREA	QUANT	2.00000E-002	Sample Area (cm^2)
IMODE	SELECTOR	1	I/E Range Mode
IRANGE	QUANT	1.00000E-003	Max Current (mA)
EQDELAY	IQUANT	10	Equil. Time (s)
IRCOMP	SELECTOR	0	IRComp
PFCOR	QUANT	5.00000E+001	PF Corr. (ohm)
CYCLES	IQUANT	101	C&ycles (#)
ELECTRODETYPE	SELECTOR	0	Electrode Type
STRIPPING	TOGGLE	F	Used for Stripping
POLARITY	TOGGLE	F	Signal Polarity
LINEFREQ	IQUANT	60	Line Frequency (Hz)
INTPERIOD	QUANT	3.3334E-005	Integration Period (s)
SEQUENCER	TOGGLE	TRUE	Run as Sequence
PSTATMODEL	IQUANT	4	Pstat Model
PSTATSECTION	LABEL	REF600-24079	Pstat Section
PSTATSERIALNO	LABEL	24079	Pstat Serial Number
CTRLMODE	IQUANT	1	Control Mode
ELECTROMETER	IQUANT	0	RE=0 or CS=1
IESTAB	IQUANT	2	I/E Stability
CASPEED	IQUANT	6	Control Amp Speed
CONVENTION	IQUANT	1	Current Convention
ICHRANGE	IQUANT	2	Ich Range
ICHRANGEMODE	TOGGLE	F	Ich Auto Range
ICHOFFSETENABLE	TOGGLE	F	Ich Offset Enable
ICHOFFSET	QUANT	0	Ich Offset (V)
ICHFILTER	IQUANT	2	Ich Filter
VCHRANGE	IQUANT	2	Vch Range
VCHRANGEMODE	TOGGLE	F	Vch Auto Range
VCHOFFSETENABLE	TOGGLE	F	Vch Offset Enable
VCHOFFSET	QUANT	0	Vch Offset (V)
VCHFILTER	IQUANT	2	Vch Filter
ACHRANGE	IQUANT	2	Ach Range
ACHOFFSETENABLE	TOGGLE	F	Ach Offset Enable
ACHOFFSET	QUANT	0	Ach Offset (V)
ACHFILTER	IQUANT	1	Ach Filter
IERANGELOWERLIMIT	IQUANT	1	I/E Range Lower Limit
IERANGEMODE	TOGGLE	F	I/E AutoRange
IERANGE	IQUANT	6	I/E Range
POSFEEDENABLE	TOGGLE	F	Positive Feedback IR Comp
POSFEEDRESISTANCE	QUANT	0	Positive Feedback Resistance (ohm)
ACHSELECT	IQUANT	0	Ach Select
SENSECABLEID	IQUANT	13	Sense Cable ID
PWRCABLEID	IQUANT	13	Power Cable ID
DCCALDATE	LABEL	6/30/2020	DC Calibration Date
ACCALDATE	LABEL	6/30/2020	AC Calibration Date
THERMOSELECT	IQUANT	1	Thermo Select
FRAMEWORKVERSION	LABEL	7.8.2	Framework Version
INSTRUMENTVERSION	LABEL	4.40	Instrument Version
CURVE	TABLE	101
	Pt	T	Vfwd	Vrev	Vstep	Ifwd	Irev	Idif	Sig	Ach	IERange	Over	Temp
	#	s	V	V	V	A	A	A	V	V	#	bits	deg C
	0	0.1	-3.24891E-001	-3.74907E-001	-3.49899E-001	-8.85530E-008	-1.81800E-007	9.32469E-008	-3.75000E-001	3.66873E-004	6	..........a	-327.68
	1	0.2	-3.22877E-001	-3.72918E-001	-3.47897E-001	-7.32567E-008	-1.73814E-007	1.00557E-007	-3.73000E-001	3.62039E-004	6	..........a	-327.68
	2	0.3	-3.20893E-001	-3.70806E-001	-3.45850E-001	-6.90829E-008	-1.69089E-007	1.00006E-007	-3.71000E-001	3.76706E-004	6	..........a	-327.68
	3	0.4	-3.18920E-001	-3.68985E-001	-3.43953E-001	-6.61605E-008	-1.65313E-007	9.91529E-008	-3.69000E-001	3.48706E-004	6	..........a	-327.68
	4	0.5	-3.16823E-001	-3.66934E-001	-3.41878E-001	-6.38469E-008	-1.61470E-007	9.76234E-008	-3.67000E-001	3.61373E-004	6	..........a	-327.68
	5	0.6	-3.14898E-001	-3.64908E-001	-3.39903E-001	-6.15749E-008	-1.58386E-007	9.68106E-008	-3.65000E-001	3.59706E-004	6	..........a	-327.68
	6	0.7	-3.12909E-001	-3.62829E-001	-3.37869E-001	-5.93910E-008	-1.54858E-007	9.54675E-008	-3.63000E-001	3.75373E-004	6	..........a	-327.68
	7	0.8	-3.10894E-001	-3.60894E-001	-3.35894E-001	-5.76741E-008	-1.51754E-007	9.40800E-008	-3.61000E-001	3.51373E-004	6	..........a	-327.68
	8	0.9	-3.08892E-001	-3.58895E-001	-3.33893E-001	-5.54875E-008	-1.48724E-007	9.32362E-008	-3.59000E-001	3.61039E-004	6	..........a	-327.68
	9	1	-3.06855E-001	-3.56883E-001	-3.31869E-001	-5.36459E-008	-1.45522E-007	9.18763E-008	-3.57000E-001	3.70873E-004	6	..........a	-327.68
	10	1.1	-3.04924E-001	-3.54850E-001	-3.29887E-001	-5.16633E-008	-1.42431E-007	9.07672E-008	-3.55000E-001	3.53873E-004	6	..........a	-327.68
	11	1.2	-3.02906E-001	-3.52915E-001	-3.27910E-001	-4.98364E-008	-1.39874E-007	9.00378E-008	-3.53000E-001	3.52539E-004	6	..........a	-327.68
	12	1.3	-3.00911E-001	-3.50911E-001	-3.25911E-001	-4.79082E-008	-1.36900E-007	8.89920E-008	-3.51000E-001	3.54539E-004	6	..........a	-327.68
	13	1.4	-2.98883E-001	-3.48906E-001	-3.23895E-001	-4.63923E-008	-1.33955E-007	8.75625E-008	-3.49000E-001	3.58373E-004	6	..........a	-327.68
	14	1.5	-2.96897E-001	-3.46890E-001	-3.21893E-001	-4.46151E-008	-1.31126E-007	8.65107E-008	-3.47000E-001	3.47206E-004	6	..........a	-327.68
	15	1.6	-2.94886E-001	-3.44947E-001	-3.19917E-001	-4.27779E-008	-1.28488E-007	8.57099E-008	-3.45000E-001	3.46206E-004	6	..........a	-327.68
	16	1.7	-2.92772E-001	-3.42900E-001	-3.17836E-001	-4.11927E-008	-1.26075E-007	8.48828E-008	-3.43000E-001	3.56706E-004	6	..........a	-327.68
	17	1.8	-2.90828E-001	-3.40927E-001	-3.15878E-001	-3.94414E-008	-1.23457E-007	8.40160E-008	-3.41000E-001	3.50206E-004	6	..........a	-327.68
	18	1.9	-2.88934E-001	-3.38870E-001	-3.13902E-001	-3.78946E-008	-1.20792E-007	8.28972E-008	-3.39000E-001	3.56706E-004	6	..........a	-327.68
	19	2	-2.86904E-001	-3.36912E-001	-3.11908E-001	-3.62070E-008	-1.18287E-007	8.20801E-008	-3.37000E-001	3.62206E-004	6	..........a	-327.68
	20	2.1	-2.84835E-001	-3.34918E-001	-3.09877E-001	-3.45468E-008	-1.16110E-007	8.15634E-008	-3.35000E-001	3.58039E-004	6	..........a	-327.68
	21	2.2	-2.82838E-001	-3.32846E-001	-3.07842E-001	-3.28933E-008	-1.13651E-007	8.07576E-008	-3.33000E-001	3.41039E-004	6	..........a	-327.68
	22	2.3	-2.80923E-001	-3.30841E-001	-3.05882E-001	-3.13947E-008	-1.11337E-007	7.99422E-008	-3.31000E-001	3.62373E-004	6	..........a	-327.68
	23	2.4	-2.78904E-001	-3.28909E-001	-3.03906E-001	-2.99132E-008	-1.09055E-007	7.91414E-008	-3.29000E-001	3.50039E-004	6	..........a	-327.68
	24	2.5	-2.76892E-001	-3.26910E-001	-3.01901E-001	-2.83400E-008	-1.06899E-007	7.85586E-008	-3.27000E-001	3.50873E-004	6	..........a	-327.68
	25	2.6	-2.74872E-001	-3.24901E-001	-2.99886E-001	-2.68875E-008	-1.04701E-007	7.78132E-008	-3.25000E-001	3.72373E-004	6	..........a	-327.68
	26	2.7	-2.72904E-001	-3.22879E-001	-2.97892E-001	-2.55290E-008	-1.02511E-007	7.69825E-008	-3.23000E-001	3.60039E-004	6	..........a	-327.68
	27	2.8	-2.70891E-001	-3.20904E-001	-2.95898E-001	-2.39831E-008	-1.00722E-007	7.67384E-008	-3.21000E-001	3.32539E-004	6	..........a	-327.68
	28	2.9	-2.68898E-001	-3.18916E-001	-2.93907E-001	-2.25206E-008	-9.86320E-008	7.61113E-008	-3.19000E-001	3.53873E-004	6	..........a	-327.68
	29	3	-2.66817E-001	-3.16841E-001	-2.91829E-001	-2.12161E-008	-9.66607E-008	7.54446E-008	-3.17000E-001	3.52206E-004	6	..........a	-327.68
	30	3.1	-2.64939E-001	-3.14914E-001	-2.89926E-001	-1.98999E-008	-9.47805E-008	7.48805E-008	-3.15000E-001	3.51706E-004	6	..........a	-327.68
	31	3.2	-2.62918E-001	-3.12934E-001	-2.87926E-001	-1.85594E-008	-9.28509E-008	7.42914E-008	-3.13000E-001	3.31039E-004	6	..........a	-327.68
	32	3.3	-2.60799E-001	-3.10917E-001	-2.85858E-001	-1.71576E-008	-9.12410E-008	7.40834E-008	-3.11000E-001	3.51206E-004	6	..........a	-327.68
	33	3.4	-2.58850E-001	-3.08823E-001	-2.83836E-001	-1.60671E-008	-8.92531E-008	7.31860E-008	-3.09000E-001	3.48539E-004	6	..........a	-327.68
	34	3.5	-2.56905E-001	-3.06863E-001	-2.81884E-001	-1.46496E-008	-8.76762E-008	7.30266E-008	-3.07000E-001	3.45206E-004	6	..........a	-327.68
	35	3.6	-2.54924E-001	-3.04922E-001	-2.79923E-001	-1.36245E-008	-8.59317E-008	7.23072E-008	-3.05000E-001	3.51539E-004	6	..........a	-327.68
	36	3.7	-2.52887E-001	-3.02928E-001	-2.77907E-001	-1.23187E-008	-8.44715E-008	7.21529E-008	-3.03000E-001	3.39873E-004	6	..........a	-327.68
	37	3.8	-2.50867E-001	-3.00916E-001	-2.75892E-001	-1.11938E-008	-8.26013E-008	7.14074E-008	-3.01000E-001	3.51873E-004	6	..........a	-327.68
	38	3.9	-2.48903E-001	-2.98890E-001	-2.73897E-001	-1.00414E-008	-8.11457E-008	7.11044E-008	-2.99000E-001	3.52873E-004	6	..........a	-327.68
	39	4	-2.46894E-001	-2.96915E-001	-2.71905E-001	-9.00490E-009	-7.96606E-008	7.06557E-008	-2.97000E-001	3.56039E-004	6	..........a	-327.68
	40	4.1	-2.44895E-001	-2.94889E-001	-2.69892E-001	-8.08678E-009	-7.80050E-008	6.99182E-008	-2.95000E-001	3.60706E-004	6	..........a	-327.68
	41	4.2	-2.42802E-001	-2.92816E-001	-2.67809E-001	-6.94797E-009	-7.66302E-008	6.96822E-008	-2.93000E-001	3.59373E-004	6	..........a	-327.68
	42	4.3	-2.40919E-001	-2.90824E-001	-2.65872E-001	-6.04985E-009	-7.52120E-008	6.91621E-008	-2.91000E-001	3.59873E-004	6	..........a	-327.68
	43	4.4	-2.38929E-001	-2.88956E-001	-2.63942E-001	-5.11207E-009	-7.38605E-008	6.87484E-008	-2.89000E-001	3.60039E-004	6	..........a	-327.68
	44	4.5	-2.36903E-001	-2.86903E-001	-2.61903E-001	-4.20729E-009	-7.24290E-008	6.82217E-008	-2.87000E-001	3.64539E-004	6	..........a	-327.68
	45	4.6	-2.34830E-001	-2.84896E-001	-2.59863E-001	-3.38551E-009	-7.09965E-008	6.76109E-008	-2.85000E-001	3.48706E-004	6	..........a	-327.68
	46	4.7	-2.32895E-001	-2.82839E-001	-2.57867E-001	-2.58675E-009	-6.96106E-008	6.70239E-008	-2.83000E-001	3.42373E-004	6	..........a	-327.68
	47	4.8	-2.30898E-001	-2.80955E-001	-2.55927E-001	-1.69097E-009	-6.83021E-008	6.66112E-008	-2.81000E-001	3.50706E-004	6	..........a	-327.68
	48	4.9	-2.28880E-001	-2.78913E-001	-2.53896E-001	-9.49871E-010	-6.69096E-008	6.59597E-008	-2.79000E-001	3.62539E-004	6	..........a	-327.68
	49	5	-2.26853E-001	-2.76881E-001	-2.51867E-001	-1.26766E-010	-6.58408E-008	6.57140E-008	-2.77000E-001	3.57706E-004	6	..........a	-327.68
	50	5.1	-2.24901E-001	-2.74880E-001	-2.49890E-001	4.34305E-010	-6.44776E-008	6.49119E-008	-2.75000E-001	3.54873E-004	6	..........a	-327.68
	51	5.2	-2.22901E-001	-2.72900E-001	-2.47900E-001	1.40009E-009	-6.32101E-008	6.46102E-008	-2.73000E-001	3.47873E-004	6	..........a	-327.68
	52	5.3	-2.20898E-001	-2.70873E-001	-2.45886E-001	1.71680E-009	-6.18883E-008	6.36051E-008	-2.71000E-001	3.68706E-004	6	..........a	-327.68
	53	5.4	-2.18879E-001	-2.68881E-001	-2.43880E-001	2.40222E-009	-6.06181E-008	6.30204E-008	-2.69000E-001	3.62373E-004	6	..........a	-327.68
	54	5.5	-2.16917E-001	-2.66817E-001	-2.41867E-001	3.06064E-009	-5.95400E-008	6.26006E-008	-2.67000E-001	3.51373E-004	6	..........a	-327.68
	55	5.6	-2.14918E-001	-2.64949E-001	-2.39933E-001	3.76773E-009	-5.83412E-008	6.21089E-008	-2.65000E-001	3.49039E-004	6	..........a	-327.68
	56	5.7	-2.12888E-001	-2.62875E-001	-2.37882E-001	4.23579E-009	-5.69337E-008	6.11694E-008	-2.63000E-001	3.59706E-004	6	..........a	-327.68
	57	5.8	-2.10876E-001	-2.60887E-001	-2.35882E-001	4.62817E-009	-5.59682E-008	6.05964E-008	-2.61000E-001	3.55873E-004	6	..........a	-327.68
	58	5.9	-2.08904E-001	-2.58848E-001	-2.33876E-001	5.18958E-009	-5.46264E-008	5.98159E-008	-2.59000E-001	3.41206E-004	6	..........a	-327.68
	59	6	-2.06917E-001	-2.56896E-001	-2.31907E-001	5.59730E-009	-5.35319E-008	5.91292E-008	-2.57000E-001	3.36373E-004	6	..........a	-327.68
	60	6.1	-2.04861E-001	-2.54918E-001	-2.29889E-001	6.20837E-009	-5.24504E-008	5.86588E-008	-2.55000E-001	3.43539E-004	6	..........a	-327.68
	61	6.2	-2.02834E-001	-2.52904E-001	-2.27869E-001	6.70544E-009	-5.12669E-008	5.79724E-008	-2.53000E-001	3.40373E-004	6	..........a	-327.68
	62	6.3	-2.00901E-001	-2.50866E-001	-2.25884E-001	7.22750E-009	-5.04728E-008	5.77003E-008	-2.51000E-001	3.29539E-004	6	..........a	-327.68
	63	6.4	-1.98905E-001	-2.48916E-001	-2.23911E-001	7.67023E-009	-4.94077E-008	5.70779E-008	-2.49000E-001	3.43539E-004	6	..........a	-327.68
	64	6.5	-1.96891E-001	-2.46892E-001	-2.21892E-001	8.26630E-009	-4.82556E-008	5.65219E-008	-2.47000E-001	3.31206E-004	6	..........a	-327.68
	65	6.6	-1.94873E-001	-2.44897E-001	-2.19885E-001	8.45066E-009	-4.73628E-008	5.58134E-008	-2.45000E-001	3.41373E-004	6	..........a	-327.68
	66	6.7	-1.92902E-001	-2.42804E-001	-2.17853E-001	9.13775E-009	-4.64973E-008	5.56351E-008	-2.43000E-001	3.22706E-004	6	..........a	-327.68
	67	6.8	-1.90911E-001	-2.40944E-001	-2.15928E-001	9.66981E-009	-4.54085E-008	5.50783E-008	-2.41000E-001	3.30039E-004	6	..........a	-327.68
	68	6.9	-1.88774E-001	-2.38931E-001	-2.13852E-001	9.82417E-009	-4.45798E-008	5.44039E-008	-2.39000E-001	3.34706E-004	6	..........a	-327.68
	69	7	-1.86831E-001	-2.36918E-001	-2.11874E-001	1.06436E-008	-4.36400E-008	5.42836E-008	-2.37000E-001	3.29873E-004	6	..........a	-327.68
	70	7.1	-1.84905E-001	-2.34832E-001	-2.09869E-001	1.09153E-008	-4.27305E-008	5.36458E-008	-2.35000E-001	3.29706E-004	6	..........a	-327.68
	71	7.2	-1.82896E-001	-2.32897E-001	-2.07896E-001	1.11130E-008	-4.17871E-008	5.29001E-008	-2.33000E-001	3.38873E-004	6	..........a	-327.68
	72	7.3	-1.80827E-001	-2.30896E-001	-2.05861E-001	1.17204E-008	-4.08853E-008	5.26057E-008	-2.31000E-001	3.35539E-004	6	..........a	-327.68
	73	7.4	-1.78809E-001	-2.28803E-001	-2.03806E-001	1.21075E-008	-4.02415E-008	5.23490E-008	-2.29000E-001	3.19373E-004	6	..........a	-327.68
	74	7.5	-1.76881E-001	-2.26845E-001	-2.01863E-001	1.24035E-008	-3.94254E-008	5.18289E-008	-2.27000E-001	3.18373E-004	6	..........a	-327.68
	75	7.6	-1.74893E-001	-2.24898E-001	-1.99896E-001	1.27185E-008	-3.87280E-008	5.14465E-008	-2.25000E-001	3.27873E-004	6	..........a	-327.68
	76	7.7	-1.72876E-001	-2.22903E-001	-1.97890E-001	1.32743E-008	-3.80199E-008	5.12942E-008	-2.23000E-001	3.29373E-004	6	..........a	-327.68
	77	7.8	-1.70857E-001	-2.20888E-001	-1.95873E-001	1.35560E-008	-3.72325E-008	5.07885E-008	-2.21000E-001	3.35873E-004	6	..........a	-327.68
	78	7.9	-1.68893E-001	-2.18884E-001	-1.93888E-001	1.40874E-008	-3.65804E-008	5.06678E-008	-2.19000E-001	3.22706E-004	6	..........a	-327.68
	79	8	-1.66904E-001	-2.16886E-001	-1.91895E-001	1.43054E-008	-3.58070E-008	5.01124E-008	-2.17000E-001	3.32706E-004	6	..........a	-327.68
	80	8.1	-1.64750E-001	-2.14936E-001	-1.89843E-001	1.43707E-008	-3.52419E-008	4.96126E-008	-2.15000E-001	3.26873E-004	6	..........a	-327.68
	81	8.2	-1.62811E-001	-2.12881E-001	-1.87846E-001	1.50805E-008	-3.47275E-008	4.98080E-008	-2.13000E-001	3.18873E-004	6	..........a	-327.68
	82	8.3	-1.60922E-001	-2.10884E-001	-1.85903E-001	1.53032E-008	-3.39104E-008	4.92136E-008	-2.11000E-001	3.21539E-004	6	..........a	-327.68
	83	8.4	-1.58895E-001	-2.08907E-001	-1.83901E-001	1.57156E-008	-3.34370E-008	4.91526E-008	-2.09000E-001	3.27706E-004	6	..........a	-327.68
	84	8.5	-1.56810E-001	-2.06912E-001	-1.81861E-001	1.60740E-008	-3.27786E-008	4.88525E-008	-2.07000E-001	3.39873E-004	6	..........a	-327.68
	85	8.6	-1.54821E-001	-2.04866E-001	-1.79844E-001	1.62780E-008	-3.22485E-008	4.85265E-008	-2.05000E-001	3.33706E-004	6	..........a	-327.68
	86	8.7	-1.52909E-001	-2.02843E-001	-1.77876E-001	1.67147E-008	-3.18435E-008	4.85582E-008	-2.03000E-001	3.26873E-004	6	..........a	-327.68
	87	8.8	-1.50906E-001	-2.00915E-001	-1.75910E-001	1.69087E-008	-3.10834E-008	4.79921E-008	-2.01000E-001	3.27539E-004	6	..........a	-327.68
	88	8.9	-1.48863E-001	-1.98915E-001	-1.73889E-001	1.73018E-008	-3.08107E-008	4.81125E-008	-1.99000E-001	3.31206E-004	6	..........a	-327.68
	89	9	-1.46849E-001	-1.96904E-001	-1.71876E-001	1.75548E-008	-3.03693E-008	4.79241E-008	-1.97000E-001	3.34706E-004	6	..........a	-327.68
	90	9.1	-1.44893E-001	-1.94879E-001	-1.69886E-001	1.80702E-008	-2.97672E-008	4.78374E-008	-1.95000E-001	3.37706E-004	6	..........a	-327.68
	91	9.2	-1.42897E-001	-1.92904E-001	-1.67900E-001	1.82229E-008	-2.93335E-008	4.75564E-008	-1.93000E-001	3.29206E-004	6	..........a	-327.68
	92	9.3	-1.40885E-001	-1.90926E-001	-1.65906E-001	1.85606E-008	-2.87854E-008	4.73460E-008	-1.91000E-001	3.39039E-004	6	..........a	-327.68
	93	9.4	-1.38804E-001	-1.88824E-001	-1.63814E-001	1.87443E-008	-2.84804E-008	4.72247E-008	-1.89000E-001	3.31206E-004	6	..........a	-327.68
	94	9.5	-1.36918E-001	-1.86860E-001	-1.61889E-001	1.89843E-008	-2.78866E-008	4.68710E-008	-1.87000E-001	3.30873E-004	6	..........a	-327.68
	95	9.6	-1.34910E-001	-1.84920E-001	-1.59915E-001	1.94567E-008	-2.75873E-008	4.70440E-008	-1.85000E-001	3.27039E-004	6	..........a	-327.68
	96	9.7	-1.32842E-001	-1.82907E-001	-1.57874E-001	1.96728E-008	-2.73059E-008	4.69786E-008	-1.83000E-001	3.35873E-004	6	..........a	-327.68
	97	9.8	-1.30834E-001	-1.80857E-001	-1.55846E-001	1.97738E-008	-2.70392E-008	4.68130E-008	-1.81000E-001	3.30039E-004	6	..........a	-327.68
	98	9.9	-1.28895E-001	-1.78840E-001	-1.53867E-001	2.01625E-008	-2.63908E-008	4.65533E-008	-1.79000E-001	3.33873E-004	6	..........a	-327.68
	99	10	-1.26918E-001	-1.76895E-001	-1.51906E-001	2.04312E-008	-2.59961E-008	4.64272E-008	-1.77000E-001	3.34206E-004	6	..........a	-327.68
	100	10.1	-1.24876E-001	-1.74902E-001	-1.49889E-001	2.06922E-008	-2.57404E-008	4.64326E-008	-1.75000E-001	3.49539E-004	6	..........a	-327.68