File: Sample Data/Concentration Curve Data/C-COM2/SWV_10Hz STD2 50  fgml 081020_#4.DTA
EXPLAIN
TAG	SQUARE_WAVE
TITLE	LABEL	Square Wave Voltammetry	Test Identifier
DATE	LABEL	8/10/2020	Date
TIME	LABEL	19:27:40	Time
NOTES	NOTES	1	Notes...
	 STD2 50  fg/mL 08102
PSTAT	PSTAT	REF600-24079	Potentiostat
VINIT	QUANT	-3.50000E-001	Initial E (V)
VFINAL	QUANT	-1.50000E-001	Final E (V)
STEPSIZE	QUANT	2.00000E+000	Step Size (mV)
TIMERRES	QUANT	3.33340E-005	&Timer Resolution
FREQUENCY	QUANT	1.00000E+001	Frequency (Hz)
PULSESIZE	QUANT	2.50000E+001	Pulse Size E (mV)
PULSEON	QUANT	1.00000E-001	Pulse &Time (s)
NOISEREJECT	TOGGLE	F	Noise Rejection
AREA	QUANT	2.00000E-002	Sample Area (cm^2)
IMODE	SELECTOR	1	I/E Range Mode
IRANGE	QUANT	1.00000E-003	Max Current (mA)
EQDELAY	IQUANT	10	Equil. Time (s)
IRCOMP	SELECTOR	0	IRComp
PFCOR	QUANT	5.00000E+001	PF Corr. (ohm)
CYCLES	IQUANT	101	C&ycles (#)
ELECTRODETYPE	SELECTOR	0	Electrode Type
STRIPPING	TOGGLE	F	Used for Stripping
POLARITY	TOGGLE	F	Signal Polarity
LINEFREQ	IQUANT	60	Line Frequency (Hz)
INTPERIOD	QUANT	3.3334E-005	Integration Period (s)
SEQUENCER	TOGGLE	TRUE	Run as Sequence
PSTATMODEL	IQUANT	4	Pstat Model
PSTATSECTION	LABEL	REF600-24079	Pstat Section
PSTATSERIALNO	LABEL	24079	Pstat Serial Number
CTRLMODE	IQUANT	1	Control Mode
ELECTROMETER	IQUANT	0	RE=0 or CS=1
IESTAB	IQUANT	2	I/E Stability
CASPEED	IQUANT	6	Control Amp Speed
CONVENTION	IQUANT	1	Current Convention
ICHRANGE	IQUANT	2	Ich Range
ICHRANGEMODE	TOGGLE	F	Ich Auto Range
ICHOFFSETENABLE	TOGGLE	F	Ich Offset Enable
ICHOFFSET	QUANT	0	Ich Offset (V)
ICHFILTER	IQUANT	2	Ich Filter
VCHRANGE	IQUANT	2	Vch Range
VCHRANGEMODE	TOGGLE	F	Vch Auto Range
VCHOFFSETENABLE	TOGGLE	F	Vch Offset Enable
VCHOFFSET	QUANT	0	Vch Offset (V)
VCHFILTER	IQUANT	2	Vch Filter
ACHRANGE	IQUANT	2	Ach Range
ACHOFFSETENABLE	TOGGLE	F	Ach Offset Enable
ACHOFFSET	QUANT	0	Ach Offset (V)
ACHFILTER	IQUANT	1	Ach Filter
IERANGELOWERLIMIT	IQUANT	1	I/E Range Lower Limit
IERANGEMODE	TOGGLE	F	I/E AutoRange
IERANGE	IQUANT	6	I/E Range
POSFEEDENABLE	TOGGLE	F	Positive Feedback IR Comp
POSFEEDRESISTANCE	QUANT	0	Positive Feedback Resistance (ohm)
ACHSELECT	IQUANT	0	Ach Select
SENSECABLEID	IQUANT	13	Sense Cable ID
PWRCABLEID	IQUANT	13	Power Cable ID
DCCALDATE	LABEL	6/30/2020	DC Calibration Date
ACCALDATE	LABEL	6/30/2020	AC Calibration Date
THERMOSELECT	IQUANT	1	Thermo Select
FRAMEWORKVERSION	LABEL	7.8.2	Framework Version
INSTRUMENTVERSION	LABEL	4.40	Instrument Version
CURVE	TABLE	101
	Pt	T	Vfwd	Vrev	Vstep	Ifwd	Irev	Idif	Sig	Ach	IERange	Over	Temp
	#	s	V	V	V	A	A	A	V	V	#	bits	deg C
	0	0.1	-3.24879E-001	-3.74902E-001	-3.49890E-001	-9.93064E-008	-1.95099E-007	9.57922E-008	-3.75000E-001	3.59039E-004	6	..........a	-327.68
	1	0.2	-3.22858E-001	-3.72900E-001	-3.47879E-001	-8.42998E-008	-1.87327E-007	1.03027E-007	-3.73000E-001	3.42539E-004	6	..........a	-327.68
	2	0.3	-3.20883E-001	-3.70818E-001	-3.45851E-001	-8.01396E-008	-1.82614E-007	1.02474E-007	-3.71000E-001	3.61706E-004	6	..........a	-327.68
	3	0.4	-3.18925E-001	-3.68920E-001	-3.43922E-001	-7.72392E-008	-1.78651E-007	1.01412E-007	-3.69000E-001	3.65373E-004	6	..........a	-327.68
	4	0.5	-3.16820E-001	-3.66916E-001	-3.41868E-001	-7.46803E-008	-1.74750E-007	1.00069E-007	-3.67000E-001	3.60373E-004	6	..........a	-327.68
	5	0.6	-3.14891E-001	-3.64881E-001	-3.39886E-001	-7.24286E-008	-1.71223E-007	9.87939E-008	-3.65000E-001	3.76706E-004	6	..........a	-327.68
	6	0.7	-3.12910E-001	-3.62849E-001	-3.37879E-001	-7.04100E-008	-1.67842E-007	9.74324E-008	-3.63000E-001	3.66539E-004	6	..........a	-327.68
	7	0.8	-3.10878E-001	-3.60893E-001	-3.35885E-001	-6.81924E-008	-1.64362E-007	9.61696E-008	-3.61000E-001	3.80039E-004	6	..........a	-327.68
	8	0.9	-3.08865E-001	-3.58896E-001	-3.33880E-001	-6.62505E-008	-1.61095E-007	9.48447E-008	-3.59000E-001	3.64373E-004	6	..........a	-327.68
	9	1	-3.06862E-001	-3.56866E-001	-3.31864E-001	-6.40716E-008	-1.58014E-007	9.39423E-008	-3.57000E-001	3.51373E-004	6	..........a	-327.68
	10	1.1	-3.04886E-001	-3.54850E-001	-3.29868E-001	-6.21813E-008	-1.54679E-007	9.24981E-008	-3.55000E-001	3.77873E-004	6	..........a	-327.68
	11	1.2	-3.02882E-001	-3.52907E-001	-3.27895E-001	-6.00697E-008	-1.51782E-007	9.17123E-008	-3.53000E-001	3.80039E-004	6	..........a	-327.68
	12	1.3	-3.00882E-001	-3.50887E-001	-3.25884E-001	-5.79518E-008	-1.48847E-007	9.08952E-008	-3.51000E-001	3.59206E-004	6	..........a	-327.68
	13	1.4	-2.98855E-001	-3.48894E-001	-3.23875E-001	-5.61296E-008	-1.45990E-007	8.98604E-008	-3.49000E-001	3.51539E-004	6	..........a	-327.68
	14	1.5	-2.96883E-001	-3.46875E-001	-3.21879E-001	-5.41936E-008	-1.43110E-007	8.89163E-008	-3.47000E-001	3.71373E-004	6	..........a	-327.68
	15	1.6	-2.94862E-001	-3.44903E-001	-3.19882E-001	-5.23561E-008	-1.40155E-007	8.77992E-008	-3.45000E-001	3.62039E-004	6	..........a	-327.68
	16	1.7	-2.92773E-001	-3.42923E-001	-3.17848E-001	-5.06585E-008	-1.37380E-007	8.67210E-008	-3.43000E-001	3.57373E-004	6	..........a	-327.68
	17	1.8	-2.90835E-001	-3.40869E-001	-3.15852E-001	-4.87276E-008	-1.34881E-007	8.61529E-008	-3.41000E-001	3.61039E-004	6	..........a	-327.68
	18	1.9	-2.88909E-001	-3.38857E-001	-3.13883E-001	-4.70981E-008	-1.32126E-007	8.50275E-008	-3.39000E-001	3.44539E-004	6	..........a	-327.68
	19	2	-2.86892E-001	-3.36882E-001	-3.11887E-001	-4.53028E-008	-1.29564E-007	8.42614E-008	-3.37000E-001	3.58706E-004	6	..........a	-327.68
	20	2.1	-2.84801E-001	-3.34898E-001	-3.09850E-001	-4.37070E-008	-1.26994E-007	8.32866E-008	-3.35000E-001	3.64206E-004	6	..........a	-327.68
	21	2.2	-2.82824E-001	-3.32861E-001	-3.07843E-001	-4.17791E-008	-1.24468E-007	8.26885E-008	-3.33000E-001	3.74373E-004	6	..........a	-327.68
	22	2.3	-2.80906E-001	-3.30835E-001	-3.05870E-001	-4.01589E-008	-1.22185E-007	8.20261E-008	-3.31000E-001	3.48873E-004	6	..........a	-327.68
	23	2.4	-2.78887E-001	-3.28900E-001	-3.03893E-001	-3.86063E-008	-1.19903E-007	8.12967E-008	-3.29000E-001	3.44206E-004	6	..........a	-327.68
	24	2.5	-2.76858E-001	-3.26893E-001	-3.01875E-001	-3.69608E-008	-1.17593E-007	8.06326E-008	-3.27000E-001	3.63206E-004	6	..........a	-327.68
	25	2.6	-2.74858E-001	-3.24864E-001	-2.99861E-001	-3.52356E-008	-1.15248E-007	8.00125E-008	-3.25000E-001	3.62039E-004	6	..........a	-327.68
	26	2.7	-2.72890E-001	-3.22874E-001	-2.97882E-001	-3.37184E-008	-1.13004E-007	7.92858E-008	-3.23000E-001	3.54873E-004	6	..........a	-327.68
	27	2.8	-2.70882E-001	-3.20886E-001	-2.95884E-001	-3.21102E-008	-1.10945E-007	7.88344E-008	-3.21000E-001	3.57539E-004	6	..........a	-327.68
	28	2.9	-2.68883E-001	-3.18932E-001	-2.93907E-001	-3.06953E-008	-1.08787E-007	7.80919E-008	-3.19000E-001	3.59206E-004	6	..........a	-327.68
	29	3	-2.66820E-001	-3.16797E-001	-2.91808E-001	-2.89148E-008	-1.06993E-007	7.80783E-008	-3.17000E-001	3.48706E-004	6	..........a	-327.68
	30	3.1	-2.64916E-001	-3.14906E-001	-2.89911E-001	-2.74769E-008	-1.04917E-007	7.74399E-008	-3.15000E-001	3.73206E-004	6	..........a	-327.68
	31	3.2	-2.62901E-001	-3.12909E-001	-2.87905E-001	-2.59744E-008	-1.02718E-007	7.67441E-008	-3.13000E-001	3.71706E-004	6	..........a	-327.68
	32	3.3	-2.60810E-001	-3.10900E-001	-2.85855E-001	-2.46519E-008	-1.01095E-007	7.64427E-008	-3.11000E-001	3.60373E-004	6	..........a	-327.68
	33	3.4	-2.58844E-001	-3.08874E-001	-2.83859E-001	-2.32337E-008	-9.93287E-008	7.60950E-008	-3.09000E-001	3.65539E-004	6	..........a	-327.68
	34	3.5	-2.56874E-001	-3.06858E-001	-2.81866E-001	-2.18545E-008	-9.74418E-008	7.55873E-008	-3.07000E-001	3.57373E-004	6	..........a	-327.68
	35	3.6	-2.54905E-001	-3.04912E-001	-2.79909E-001	-2.05120E-008	-9.56619E-008	7.51499E-008	-3.05000E-001	3.49373E-004	6	..........a	-327.68
	36	3.7	-2.52847E-001	-3.02915E-001	-2.77881E-001	-1.92989E-008	-9.39564E-008	7.46575E-008	-3.03000E-001	3.43373E-004	6	..........a	-327.68
	37	3.8	-2.50852E-001	-3.00887E-001	-2.75869E-001	-1.80991E-008	-9.24425E-008	7.43435E-008	-3.01000E-001	3.56373E-004	6	..........a	-327.68
	38	3.9	-2.48888E-001	-2.98859E-001	-2.73873E-001	-1.67552E-008	-9.06279E-008	7.38727E-008	-2.99000E-001	3.48206E-004	6	..........a	-327.68
	39	4	-2.46872E-001	-2.96891E-001	-2.71881E-001	-1.55877E-008	-8.91014E-008	7.35137E-008	-2.97000E-001	3.55873E-004	6	..........a	-327.68
	40	4.1	-2.44876E-001	-2.94893E-001	-2.69885E-001	-1.45199E-008	-8.76116E-008	7.30916E-008	-2.95000E-001	3.66873E-004	6	..........a	-327.68
	41	4.2	-2.42812E-001	-2.92782E-001	-2.67797E-001	-1.34775E-008	-8.59524E-008	7.24749E-008	-2.93000E-001	3.55706E-004	6	..........a	-327.68
	42	4.3	-2.40907E-001	-2.90852E-001	-2.65880E-001	-1.23790E-008	-8.44128E-008	7.20338E-008	-2.91000E-001	3.63373E-004	6	..........a	-327.68
	43	4.4	-2.38911E-001	-2.88917E-001	-2.63914E-001	-1.13459E-008	-8.30456E-008	7.16998E-008	-2.89000E-001	3.60873E-004	6	..........a	-327.68
	44	4.5	-2.36818E-001	-2.86896E-001	-2.61857E-001	-1.03327E-008	-8.14594E-008	7.11267E-008	-2.87000E-001	3.49539E-004	6	..........a	-327.68
	45	4.6	-2.34833E-001	-2.84867E-001	-2.59850E-001	-9.42762E-009	-7.99926E-008	7.05650E-008	-2.85000E-001	3.70373E-004	6	..........a	-327.68
	46	4.7	-2.32876E-001	-2.82846E-001	-2.57861E-001	-8.63185E-009	-7.86151E-008	6.99832E-008	-2.83000E-001	3.61873E-004	6	..........a	-327.68
	47	4.8	-2.30880E-001	-2.80917E-001	-2.55899E-001	-7.64806E-009	-7.73026E-008	6.96545E-008	-2.81000E-001	3.62873E-004	6	..........a	-327.68
	48	4.9	-2.28818E-001	-2.78889E-001	-2.53854E-001	-6.81028E-009	-7.56857E-008	6.88754E-008	-2.79000E-001	3.42373E-004	6	..........a	-327.68
	49	5	-2.26832E-001	-2.76885E-001	-2.51858E-001	-6.11853E-009	-7.44126E-008	6.82940E-008	-2.77000E-001	3.71873E-004	6	..........a	-327.68
	50	5.1	-2.24880E-001	-2.74871E-001	-2.49875E-001	-5.22275E-009	-7.32281E-008	6.80053E-008	-2.75000E-001	3.56206E-004	6	..........a	-327.68
	51	5.2	-2.22892E-001	-2.72893E-001	-2.47892E-001	-4.58767E-009	-7.16382E-008	6.70505E-008	-2.73000E-001	3.61873E-004	6	..........a	-327.68
	52	5.3	-2.20879E-001	-2.70862E-001	-2.45871E-001	-3.57087E-009	-7.02797E-008	6.67088E-008	-2.71000E-001	3.61373E-004	6	..........a	-327.68
	53	5.4	-2.18858E-001	-2.68886E-001	-2.43872E-001	-2.83578E-009	-6.90549E-008	6.62191E-008	-2.69000E-001	3.73873E-004	6	..........a	-327.68
	54	5.5	-2.16899E-001	-2.66828E-001	-2.41863E-001	-2.26771E-009	-6.75953E-008	6.53276E-008	-2.67000E-001	3.76706E-004	6	..........a	-327.68
	55	5.6	-2.14909E-001	-2.64920E-001	-2.39914E-001	-1.46727E-009	-6.63109E-008	6.48436E-008	-2.65000E-001	3.67873E-004	6	..........a	-327.68
	56	5.7	-2.12888E-001	-2.62887E-001	-2.37887E-001	-9.96543E-010	-6.51884E-008	6.41918E-008	-2.63000E-001	3.68706E-004	6	..........a	-327.68
	57	5.8	-2.10865E-001	-2.60799E-001	-2.35832E-001	-2.41447E-010	-6.37819E-008	6.35404E-008	-2.61000E-001	3.69706E-004	6	..........a	-327.68
	58	5.9	-2.08891E-001	-2.58846E-001	-2.33869E-001	5.71323E-010	-6.25500E-008	6.31214E-008	-2.59000E-001	3.58873E-004	6	..........a	-327.68
	59	6	-2.06894E-001	-2.56887E-001	-2.31890E-001	1.07672E-009	-6.11649E-008	6.22416E-008	-2.57000E-001	3.61206E-004	6	..........a	-327.68
	60	6.1	-2.04818E-001	-2.54906E-001	-2.29862E-001	1.83482E-009	-6.01971E-008	6.20319E-008	-2.55000E-001	3.59206E-004	6	..........a	-327.68
	61	6.2	-2.02836E-001	-2.52877E-001	-2.27856E-001	2.28521E-009	-5.90233E-008	6.13085E-008	-2.53000E-001	3.61206E-004	6	..........a	-327.68
	62	6.3	-2.00900E-001	-2.50865E-001	-2.25882E-001	2.80894E-009	-5.76107E-008	6.04197E-008	-2.51000E-001	3.47706E-004	6	..........a	-327.68
	63	6.4	-1.98901E-001	-2.48887E-001	-2.23894E-001	3.26933E-009	-5.64943E-008	5.97636E-008	-2.49000E-001	3.56539E-004	6	..........a	-327.68
	64	6.5	-1.96875E-001	-2.46861E-001	-2.21868E-001	3.76440E-009	-5.53325E-008	5.90969E-008	-2.47000E-001	3.39206E-004	6	..........a	-327.68
	65	6.6	-1.94872E-001	-2.44870E-001	-2.19871E-001	4.09377E-009	-5.40963E-008	5.81901E-008	-2.45000E-001	3.53373E-004	6	..........a	-327.68
	66	6.7	-1.92894E-001	-2.42823E-001	-2.17858E-001	4.80053E-009	-5.31382E-008	5.79387E-008	-2.43000E-001	3.50706E-004	6	..........a	-327.68
	67	6.8	-1.90917E-001	-2.40920E-001	-2.15919E-001	5.27059E-009	-5.20814E-008	5.73520E-008	-2.41000E-001	3.44873E-004	6	..........a	-327.68
	68	6.9	-1.88786E-001	-2.38899E-001	-2.13842E-001	5.74798E-009	-5.11939E-008	5.69419E-008	-2.39000E-001	3.42873E-004	6	..........a	-327.68
	69	7	-1.86854E-001	-2.36898E-001	-2.11876E-001	6.39540E-009	-5.02551E-008	5.66505E-008	-2.37000E-001	3.29873E-004	6	..........a	-327.68
	70	7.1	-1.84892E-001	-2.34855E-001	-2.09873E-001	6.76444E-009	-4.91263E-008	5.58908E-008	-2.35000E-001	3.34039E-004	6	..........a	-327.68
	71	7.2	-1.82888E-001	-2.32889E-001	-2.07888E-001	7.15616E-009	-4.82892E-008	5.54454E-008	-2.33000E-001	3.34206E-004	6	..........a	-327.68
	72	7.3	-1.80769E-001	-2.30886E-001	-2.05827E-001	7.85225E-009	-4.71948E-008	5.50470E-008	-2.31000E-001	3.35206E-004	6	..........a	-327.68
	73	7.4	-1.78812E-001	-2.28852E-001	-2.03832E-001	8.26497E-009	-4.65067E-008	5.47716E-008	-2.29000E-001	3.49873E-004	6	..........a	-327.68
	74	7.5	-1.76865E-001	-2.26848E-001	-2.01856E-001	8.65268E-009	-4.54655E-008	5.41182E-008	-2.27000E-001	3.36539E-004	6	..........a	-327.68
	75	7.6	-1.74889E-001	-2.24889E-001	-1.99889E-001	9.15208E-009	-4.47031E-008	5.38552E-008	-2.25000E-001	3.37206E-004	6	..........a	-327.68
	76	7.7	-1.72849E-001	-2.22892E-001	-1.97870E-001	9.64848E-009	-4.40133E-008	5.36618E-008	-2.23000E-001	3.31206E-004	6	..........a	-327.68
	77	7.8	-1.70824E-001	-2.20885E-001	-1.95855E-001	1.01119E-008	-4.31456E-008	5.32574E-008	-2.21000E-001	3.42206E-004	6	..........a	-327.68
	78	7.9	-1.68879E-001	-2.18877E-001	-1.93878E-001	1.05446E-008	-4.22168E-008	5.27614E-008	-2.19000E-001	3.37206E-004	6	..........a	-327.68
	79	8	-1.66886E-001	-2.16927E-001	-1.91907E-001	1.10843E-008	-4.15997E-008	5.26840E-008	-2.17000E-001	3.38873E-004	6	..........a	-327.68
	80	8.1	-1.64732E-001	-2.14917E-001	-1.89824E-001	1.14777E-008	-4.07526E-008	5.22303E-008	-2.15000E-001	3.38539E-004	6	..........a	-327.68
	81	8.2	-1.62805E-001	-2.12784E-001	-1.87795E-001	1.18264E-008	-4.01732E-008	5.19996E-008	-2.13000E-001	3.43373E-004	6	..........a	-327.68
	82	8.3	-1.60896E-001	-2.10868E-001	-1.85882E-001	1.23652E-008	-3.94014E-008	5.17666E-008	-2.11000E-001	3.27206E-004	6	..........a	-327.68
	83	8.4	-1.58886E-001	-2.08886E-001	-1.83886E-001	1.26542E-008	-3.88237E-008	5.14779E-008	-2.09000E-001	3.39873E-004	6	..........a	-327.68
	84	8.5	-1.56797E-001	-2.06889E-001	-1.81843E-001	1.29236E-008	-3.81266E-008	5.10502E-008	-2.07000E-001	3.29373E-004	6	..........a	-327.68
	85	8.6	-1.54802E-001	-2.04809E-001	-1.79805E-001	1.34183E-008	-3.73295E-008	5.07478E-008	-2.05000E-001	3.31539E-004	6	..........a	-327.68
	86	8.7	-1.52880E-001	-2.02842E-001	-1.77861E-001	1.38827E-008	-3.69234E-008	5.08061E-008	-2.03000E-001	3.33373E-004	6	..........a	-327.68
	87	8.8	-1.50903E-001	-2.00880E-001	-1.75891E-001	1.43604E-008	-3.59923E-008	5.03527E-008	-2.01000E-001	3.29039E-004	6	..........a	-327.68
	88	8.9	-1.48820E-001	-1.98899E-001	-1.73860E-001	1.48515E-008	-3.54496E-008	5.03011E-008	-1.99000E-001	3.41706E-004	6	..........a	-327.68
	89	9	-1.46845E-001	-1.96876E-001	-1.71861E-001	1.49605E-008	-3.51322E-008	5.00927E-008	-1.97000E-001	3.55373E-004	6	..........a	-327.68
	90	9.1	-1.44880E-001	-1.94879E-001	-1.69880E-001	1.54305E-008	-3.44071E-008	4.98377E-008	-1.95000E-001	3.41706E-004	6	..........a	-327.68
	91	9.2	-1.42883E-001	-1.92891E-001	-1.67887E-001	1.60140E-008	-3.39364E-008	4.99504E-008	-1.93000E-001	3.32539E-004	6	..........a	-327.68
	92	9.3	-1.40868E-001	-1.90910E-001	-1.65889E-001	1.60916E-008	-3.34227E-008	4.95143E-008	-1.91000E-001	3.36039E-004	6	..........a	-327.68
	93	9.4	-1.38787E-001	-1.88768E-001	-1.63778E-001	1.64283E-008	-3.27913E-008	4.92196E-008	-1.89000E-001	3.41039E-004	6	..........a	-327.68
	94	9.5	-1.36865E-001	-1.86866E-001	-1.61866E-001	1.67751E-008	-3.24179E-008	4.91929E-008	-1.87000E-001	3.45706E-004	6	..........a	-327.68
	95	9.6	-1.34880E-001	-1.84890E-001	-1.59885E-001	1.71588E-008	-3.19655E-008	4.91243E-008	-1.85000E-001	3.37206E-004	6	..........a	-327.68
	96	9.7	-1.32791E-001	-1.82889E-001	-1.57840E-001	1.75098E-008	-3.14724E-008	4.89822E-008	-1.83000E-001	3.33206E-004	6	..........a	-327.68
	97	9.8	-1.30827E-001	-1.80845E-001	-1.55836E-001	1.79165E-008	-3.09760E-008	4.88926E-008	-1.81000E-001	3.39539E-004	6	..........a	-327.68
	98	9.9	-1.28872E-001	-1.78842E-001	-1.53857E-001	1.81999E-008	-3.06817E-008	4.88816E-008	-1.79000E-001	3.30206E-004	6	..........a	-327.68
	99	10	-1.26898E-001	-1.76891E-001	-1.51895E-001	1.84396E-008	-3.00786E-008	4.85182E-008	-1.77000E-001	3.39039E-004	6	..........a	-327.68
	100	10.1	-1.24848E-001	-1.74897E-001	-1.49873E-001	1.89010E-008	-2.97642E-008	4.86652E-008	-1.75000E-001	3.35539E-004	6	..........a	-327.68