File: Sample Data/Concentration Curve Data/C-COM3/SWV_10Hz STD3 100  fgml 081020_#8.DTA
EXPLAIN
TAG	SQUARE_WAVE
TITLE	LABEL	Square Wave Voltammetry	Test Identifier
DATE	LABEL	8/10/2020	Date
TIME	LABEL	20:26:27	Time
NOTES	NOTES	1	Notes...
	 STD3 100  fg/mL 08102
PSTAT	PSTAT	REF600-24079	Potentiostat
VINIT	QUANT	-3.50000E-001	Initial E (V)
VFINAL	QUANT	-1.50000E-001	Final E (V)
STEPSIZE	QUANT	2.00000E+000	Step Size (mV)
TIMERRES	QUANT	3.33340E-005	&Timer Resolution
FREQUENCY	QUANT	1.00000E+001	Frequency (Hz)
PULSESIZE	QUANT	2.50000E+001	Pulse Size E (mV)
PULSEON	QUANT	1.00000E-001	Pulse &Time (s)
NOISEREJECT	TOGGLE	F	Noise Rejection
AREA	QUANT	2.00000E-002	Sample Area (cm^2)
IMODE	SELECTOR	1	I/E Range Mode
IRANGE	QUANT	1.00000E-003	Max Current (mA)
EQDELAY	IQUANT	10	Equil. Time (s)
IRCOMP	SELECTOR	0	IRComp
PFCOR	QUANT	5.00000E+001	PF Corr. (ohm)
CYCLES	IQUANT	101	C&ycles (#)
ELECTRODETYPE	SELECTOR	0	Electrode Type
STRIPPING	TOGGLE	F	Used for Stripping
POLARITY	TOGGLE	F	Signal Polarity
LINEFREQ	IQUANT	60	Line Frequency (Hz)
INTPERIOD	QUANT	3.3334E-005	Integration Period (s)
SEQUENCER	TOGGLE	TRUE	Run as Sequence
PSTATMODEL	IQUANT	4	Pstat Model
PSTATSECTION	LABEL	REF600-24079	Pstat Section
PSTATSERIALNO	LABEL	24079	Pstat Serial Number
CTRLMODE	IQUANT	1	Control Mode
ELECTROMETER	IQUANT	0	RE=0 or CS=1
IESTAB	IQUANT	2	I/E Stability
CASPEED	IQUANT	6	Control Amp Speed
CONVENTION	IQUANT	1	Current Convention
ICHRANGE	IQUANT	2	Ich Range
ICHRANGEMODE	TOGGLE	F	Ich Auto Range
ICHOFFSETENABLE	TOGGLE	F	Ich Offset Enable
ICHOFFSET	QUANT	0	Ich Offset (V)
ICHFILTER	IQUANT	2	Ich Filter
VCHRANGE	IQUANT	2	Vch Range
VCHRANGEMODE	TOGGLE	F	Vch Auto Range
VCHOFFSETENABLE	TOGGLE	F	Vch Offset Enable
VCHOFFSET	QUANT	0	Vch Offset (V)
VCHFILTER	IQUANT	2	Vch Filter
ACHRANGE	IQUANT	2	Ach Range
ACHOFFSETENABLE	TOGGLE	F	Ach Offset Enable
ACHOFFSET	QUANT	0	Ach Offset (V)
ACHFILTER	IQUANT	1	Ach Filter
IERANGELOWERLIMIT	IQUANT	1	I/E Range Lower Limit
IERANGEMODE	TOGGLE	F	I/E AutoRange
IERANGE	IQUANT	6	I/E Range
POSFEEDENABLE	TOGGLE	F	Positive Feedback IR Comp
POSFEEDRESISTANCE	QUANT	0	Positive Feedback Resistance (ohm)
ACHSELECT	IQUANT	0	Ach Select
SENSECABLEID	IQUANT	13	Sense Cable ID
PWRCABLEID	IQUANT	13	Power Cable ID
DCCALDATE	LABEL	6/30/2020	DC Calibration Date
ACCALDATE	LABEL	6/30/2020	AC Calibration Date
THERMOSELECT	IQUANT	1	Thermo Select
FRAMEWORKVERSION	LABEL	7.8.2	Framework Version
INSTRUMENTVERSION	LABEL	4.40	Instrument Version
CURVE	TABLE	101
	Pt	T	Vfwd	Vrev	Vstep	Ifwd	Irev	Idif	Sig	Ach	IERange	Over	Temp
	#	s	V	V	V	A	A	A	V	V	#	bits	deg C
	0	0.1	-3.24893E-001	-3.74907E-001	-3.49900E-001	-1.04839E-007	-2.10109E-007	1.05270E-007	-3.75000E-001	4.02539E-004	6	..........a	-327.68
	1	0.2	-3.22875E-001	-3.72911E-001	-3.47893E-001	-8.97455E-008	-2.01842E-007	1.12097E-007	-3.73000E-001	3.99373E-004	6	..........a	-327.68
	2	0.3	-3.20904E-001	-3.70773E-001	-3.45838E-001	-8.54746E-008	-1.96928E-007	1.11454E-007	-3.71000E-001	3.94539E-004	6	..........a	-327.68
	3	0.4	-3.18899E-001	-3.68890E-001	-3.43894E-001	-8.24246E-008	-1.92243E-007	1.09818E-007	-3.69000E-001	3.93873E-004	6	..........a	-327.68
	4	0.5	-3.16853E-001	-3.66962E-001	-3.41907E-001	-7.94822E-008	-1.88159E-007	1.08677E-007	-3.67000E-001	3.94873E-004	6	..........a	-327.68
	5	0.6	-3.14894E-001	-3.64900E-001	-3.39897E-001	-7.72869E-008	-1.83868E-007	1.06581E-007	-3.65000E-001	4.00539E-004	6	..........a	-327.68
	6	0.7	-3.12906E-001	-3.62817E-001	-3.37861E-001	-7.45379E-008	-1.80015E-007	1.05477E-007	-3.63000E-001	4.03706E-004	6	..........a	-327.68
	7	0.8	-3.10896E-001	-3.60889E-001	-3.35892E-001	-7.22329E-008	-1.76214E-007	1.03981E-007	-3.61000E-001	4.10873E-004	6	..........a	-327.68
	8	0.9	-3.08880E-001	-3.58899E-001	-3.33890E-001	-7.01117E-008	-1.72578E-007	1.02467E-007	-3.59000E-001	4.25373E-004	6	..........a	-327.68
	9	1	-3.06829E-001	-3.56841E-001	-3.31835E-001	-6.78807E-008	-1.69015E-007	1.01134E-007	-3.57000E-001	4.08373E-004	6	..........a	-327.68
	10	1.1	-3.04912E-001	-3.54843E-001	-3.29877E-001	-6.57805E-008	-1.65412E-007	9.96320E-008	-3.55000E-001	4.09373E-004	6	..........a	-327.68
	11	1.2	-3.02898E-001	-3.52902E-001	-3.27900E-001	-6.34128E-008	-1.61931E-007	9.85185E-008	-3.53000E-001	4.09373E-004	6	..........a	-327.68
	12	1.3	-3.00890E-001	-3.50897E-001	-3.25894E-001	-6.14669E-008	-1.58615E-007	9.71480E-008	-3.51000E-001	4.19039E-004	6	..........a	-327.68
	13	1.4	-2.98861E-001	-3.48897E-001	-3.23879E-001	-5.92813E-008	-1.55094E-007	9.58132E-008	-3.49000E-001	4.06873E-004	6	..........a	-327.68
	14	1.5	-2.96890E-001	-3.46898E-001	-3.21894E-001	-5.73684E-008	-1.51851E-007	9.44830E-008	-3.47000E-001	3.90873E-004	6	..........a	-327.68
	15	1.6	-2.94878E-001	-3.44922E-001	-3.19900E-001	-5.53275E-008	-1.48584E-007	9.32569E-008	-3.45000E-001	4.12539E-004	6	..........a	-327.68
	16	1.7	-2.92798E-001	-3.42915E-001	-3.17857E-001	-5.32599E-008	-1.45588E-007	9.23281E-008	-3.43000E-001	3.99539E-004	6	..........a	-327.68
	17	1.8	-2.90791E-001	-3.40787E-001	-3.15789E-001	-5.14053E-008	-1.42517E-007	9.11112E-008	-3.41000E-001	3.85373E-004	6	..........a	-327.68
	18	1.9	-2.88922E-001	-3.38839E-001	-3.13881E-001	-4.92290E-008	-1.39493E-007	9.02641E-008	-3.39000E-001	3.88539E-004	6	..........a	-327.68
	19	2	-2.86894E-001	-3.36872E-001	-3.11883E-001	-4.77832E-008	-1.36447E-007	8.86639E-008	-3.37000E-001	3.90373E-004	6	..........a	-327.68
	20	2.1	-2.84851E-001	-3.34897E-001	-3.09874E-001	-4.59009E-008	-1.33436E-007	8.75351E-008	-3.35000E-001	3.90039E-004	6	..........a	-327.68
	21	2.2	-2.82815E-001	-3.32873E-001	-3.07844E-001	-4.41960E-008	-1.30607E-007	8.64113E-008	-3.33000E-001	4.04039E-004	6	..........a	-327.68
	22	2.3	-2.80908E-001	-3.30819E-001	-3.05863E-001	-4.24525E-008	-1.27857E-007	8.54042E-008	-3.31000E-001	4.01039E-004	6	..........a	-327.68
	23	2.4	-2.78903E-001	-3.28914E-001	-3.03909E-001	-4.05146E-008	-1.25269E-007	8.47545E-008	-3.29000E-001	4.02206E-004	6	..........a	-327.68
	24	2.5	-2.76887E-001	-3.26913E-001	-3.01900E-001	-3.89170E-008	-1.22424E-007	8.35070E-008	-3.27000E-001	3.83206E-004	6	..........a	-327.68
	25	2.6	-2.74860E-001	-3.24902E-001	-2.99881E-001	-3.73552E-008	-1.19949E-007	8.25942E-008	-3.25000E-001	3.97706E-004	6	..........a	-327.68
	26	2.7	-2.72890E-001	-3.22875E-001	-2.97882E-001	-3.55363E-008	-1.17496E-007	8.19598E-008	-3.23000E-001	3.98039E-004	6	..........a	-327.68
	27	2.8	-2.70901E-001	-3.20900E-001	-2.95901E-001	-3.37647E-008	-1.14874E-007	8.11093E-008	-3.21000E-001	3.95873E-004	6	..........a	-327.68
	28	2.9	-2.68902E-001	-3.18935E-001	-2.93918E-001	-3.22705E-008	-1.12256E-007	7.99855E-008	-3.19000E-001	4.00039E-004	6	..........a	-327.68
	29	3	-2.66802E-001	-3.16874E-001	-2.91838E-001	-3.07263E-008	-1.09987E-007	7.92607E-008	-3.17000E-001	4.04206E-004	6	..........a	-327.68
	30	3.1	-2.64904E-001	-3.14896E-001	-2.89900E-001	-2.91438E-008	-1.07479E-007	7.83350E-008	-3.15000E-001	3.96539E-004	6	..........a	-327.68
	31	3.2	-2.62914E-001	-3.12911E-001	-2.87913E-001	-2.74429E-008	-1.05369E-007	7.79266E-008	-3.13000E-001	4.00706E-004	6	..........a	-327.68
	32	3.3	-2.60838E-001	-3.10904E-001	-2.85871E-001	-2.61221E-008	-1.02972E-007	7.68501E-008	-3.11000E-001	3.98039E-004	6	..........a	-327.68
	33	3.4	-2.58830E-001	-3.08877E-001	-2.83853E-001	-2.47919E-008	-1.00956E-007	7.61644E-008	-3.09000E-001	4.01873E-004	6	..........a	-327.68
	34	3.5	-2.56876E-001	-3.06843E-001	-2.81859E-001	-2.32240E-008	-9.89657E-008	7.57416E-008	-3.07000E-001	4.05539E-004	6	..........a	-327.68
	35	3.6	-2.54923E-001	-3.04913E-001	-2.79918E-001	-2.19142E-008	-9.68807E-008	7.49665E-008	-3.05000E-001	4.04373E-004	6	..........a	-327.68
	36	3.7	-2.52885E-001	-3.02934E-001	-2.77910E-001	-2.07037E-008	-9.47628E-008	7.40591E-008	-3.03000E-001	4.12373E-004	6	..........a	-327.68
	37	3.8	-2.50855E-001	-3.00904E-001	-2.75879E-001	-1.93832E-008	-9.29693E-008	7.35860E-008	-3.01000E-001	4.05039E-004	6	..........a	-327.68
	38	3.9	-2.48907E-001	-2.98871E-001	-2.73889E-001	-1.81011E-008	-9.07543E-008	7.26532E-008	-2.99000E-001	4.03206E-004	6	..........a	-327.68
	39	4	-2.46896E-001	-2.96921E-001	-2.71908E-001	-1.69476E-008	-8.90751E-008	7.21275E-008	-2.97000E-001	3.94539E-004	6	..........a	-327.68
	40	4.1	-2.44901E-001	-2.94911E-001	-2.69906E-001	-1.56267E-008	-8.70838E-008	7.14571E-008	-2.95000E-001	4.05873E-004	6	..........a	-327.68
	41	4.2	-2.42790E-001	-2.92793E-001	-2.67792E-001	-1.45266E-008	-8.52296E-008	7.07030E-008	-2.93000E-001	4.15039E-004	6	..........a	-327.68
	42	4.3	-2.40895E-001	-2.90820E-001	-2.65858E-001	-1.35001E-008	-8.36124E-008	7.01123E-008	-2.91000E-001	4.01873E-004	6	..........a	-327.68
	43	4.4	-2.38932E-001	-2.88932E-001	-2.63932E-001	-1.23227E-008	-8.18475E-008	6.95248E-008	-2.89000E-001	3.95206E-004	6	..........a	-327.68
	44	4.5	-2.36875E-001	-2.86901E-001	-2.61888E-001	-1.12929E-008	-8.01650E-008	6.88721E-008	-2.87000E-001	4.10206E-004	6	..........a	-327.68
	45	4.6	-2.34809E-001	-2.84885E-001	-2.59847E-001	-1.01137E-008	-7.83737E-008	6.82600E-008	-2.85000E-001	4.01373E-004	6	..........a	-327.68
	46	4.7	-2.32872E-001	-2.82827E-001	-2.57849E-001	-9.40195E-009	-7.66592E-008	6.72572E-008	-2.83000E-001	4.10873E-004	6	..........a	-327.68
	47	4.8	-2.30889E-001	-2.80932E-001	-2.55910E-001	-8.25780E-009	-7.51813E-008	6.69235E-008	-2.81000E-001	4.25373E-004	6	..........a	-327.68
	48	4.9	-2.28824E-001	-2.78898E-001	-2.53861E-001	-7.41269E-009	-7.36771E-008	6.62644E-008	-2.79000E-001	4.28373E-004	6	..........a	-327.68
	49	5	-2.26825E-001	-2.76902E-001	-2.51863E-001	-6.44957E-009	-7.21363E-008	6.56867E-008	-2.77000E-001	4.07706E-004	6	..........a	-327.68
	50	5.1	-2.24899E-001	-2.74863E-001	-2.49881E-001	-5.69881E-009	-7.07411E-008	6.50423E-008	-2.75000E-001	4.23206E-004	6	..........a	-327.68
	51	5.2	-2.22887E-001	-2.72903E-001	-2.47895E-001	-4.63201E-009	-6.91265E-008	6.44945E-008	-2.73000E-001	4.07373E-004	6	..........a	-327.68
	52	5.3	-2.20889E-001	-2.70882E-001	-2.45886E-001	-3.81824E-009	-6.75567E-008	6.37384E-008	-2.71000E-001	4.15539E-004	6	..........a	-327.68
	53	5.4	-2.18871E-001	-2.68892E-001	-2.43881E-001	-3.10781E-009	-6.62605E-008	6.31527E-008	-2.69000E-001	4.00539E-004	6	..........a	-327.68
	54	5.5	-2.16881E-001	-2.66791E-001	-2.41836E-001	-2.14536E-009	-6.48423E-008	6.26970E-008	-2.67000E-001	3.98039E-004	6	..........a	-327.68
	55	5.6	-2.14927E-001	-2.64920E-001	-2.39923E-001	-1.50761E-009	-6.34468E-008	6.19392E-008	-2.65000E-001	4.23539E-004	6	..........a	-327.68
	56	5.7	-2.12900E-001	-2.62888E-001	-2.37894E-001	-7.77182E-010	-6.21543E-008	6.13771E-008	-2.63000E-001	4.07373E-004	6	..........a	-327.68
	57	5.8	-2.10855E-001	-2.60881E-001	-2.35868E-001	-8.54275E-011	-6.07448E-008	6.06594E-008	-2.61000E-001	4.04039E-004	6	..........a	-327.68
	58	5.9	-2.08879E-001	-2.58829E-001	-2.33854E-001	6.36998E-010	-5.92986E-008	5.99356E-008	-2.59000E-001	4.00539E-004	6	..........a	-327.68
	59	6	-2.06904E-001	-2.56877E-001	-2.31891E-001	1.18873E-009	-5.81135E-008	5.93022E-008	-2.57000E-001	3.98039E-004	6	..........a	-327.68
	60	6.1	-2.04853E-001	-2.54906E-001	-2.29880E-001	1.98284E-009	-5.68997E-008	5.88825E-008	-2.55000E-001	4.12539E-004	6	..........a	-327.68
	61	6.2	-2.02822E-001	-2.52889E-001	-2.27856E-001	2.62992E-009	-5.57578E-008	5.83878E-008	-2.53000E-001	3.88373E-004	6	..........a	-327.68
	62	6.3	-2.00907E-001	-2.50860E-001	-2.25884E-001	3.13398E-009	-5.44007E-008	5.75347E-008	-2.51000E-001	3.95706E-004	6	..........a	-327.68
	63	6.4	-1.98912E-001	-2.48910E-001	-2.23911E-001	3.62604E-009	-5.33099E-008	5.69359E-008	-2.49000E-001	3.90873E-004	6	..........a	-327.68
	64	6.5	-1.96900E-001	-2.46892E-001	-2.21896E-001	4.18478E-009	-5.19040E-008	5.60888E-008	-2.47000E-001	3.86873E-004	6	..........a	-327.68
	65	6.6	-1.94879E-001	-2.44892E-001	-2.19886E-001	4.88554E-009	-5.10452E-008	5.59308E-008	-2.45000E-001	3.71206E-004	6	..........a	-327.68
	66	6.7	-1.92916E-001	-2.42783E-001	-2.17849E-001	5.26892E-009	-5.00478E-008	5.53167E-008	-2.43000E-001	4.06706E-004	6	..........a	-327.68
	67	6.8	-1.90924E-001	-2.40915E-001	-2.15920E-001	5.98834E-009	-4.89947E-008	5.49830E-008	-2.41000E-001	3.88039E-004	6	..........a	-327.68
	68	6.9	-1.88799E-001	-2.38931E-001	-2.13865E-001	6.50841E-009	-4.80122E-008	5.45206E-008	-2.39000E-001	3.86206E-004	6	..........a	-327.68
	69	7	-1.86815E-001	-2.36911E-001	-2.11863E-001	7.02148E-009	-4.70101E-008	5.40315E-008	-2.37000E-001	3.94039E-004	6	..........a	-327.68
	70	7.1	-1.84910E-001	-2.34821E-001	-2.09865E-001	7.41453E-009	-4.62970E-008	5.37115E-008	-2.35000E-001	3.78539E-004	6	..........a	-327.68
	71	7.2	-1.82898E-001	-2.32888E-001	-2.07893E-001	7.99227E-009	-4.50845E-008	5.30768E-008	-2.33000E-001	3.85373E-004	6	..........a	-327.68
	72	7.3	-1.80807E-001	-2.30887E-001	-2.05847E-001	8.38932E-009	-4.40354E-008	5.24247E-008	-2.31000E-001	3.87706E-004	6	..........a	-327.68
	73	7.4	-1.78794E-001	-2.28887E-001	-2.03840E-001	9.06274E-009	-4.33519E-008	5.24147E-008	-2.29000E-001	3.83373E-004	6	..........a	-327.68
	74	7.5	-1.76872E-001	-2.26838E-001	-2.01855E-001	9.56413E-009	-4.24728E-008	5.20370E-008	-2.27000E-001	3.84539E-004	6	..........a	-327.68
	75	7.6	-1.74898E-001	-2.24909E-001	-1.99903E-001	9.91051E-009	-4.16257E-008	5.15362E-008	-2.25000E-001	3.85373E-004	6	..........a	-327.68
	76	7.7	-1.72862E-001	-2.22896E-001	-1.97879E-001	1.03882E-008	-4.07806E-008	5.11688E-008	-2.23000E-001	3.90539E-004	6	..........a	-327.68
	77	7.8	-1.70842E-001	-2.20888E-001	-1.95865E-001	1.09263E-008	-3.98818E-008	5.08081E-008	-2.21000E-001	3.85706E-004	6	..........a	-327.68
	78	7.9	-1.68887E-001	-2.18875E-001	-1.93881E-001	1.13310E-008	-3.90577E-008	5.03887E-008	-2.19000E-001	3.79039E-004	6	..........a	-327.68
	79	8	-1.66902E-001	-2.16890E-001	-1.91896E-001	1.17071E-008	-3.85727E-008	5.02797E-008	-2.17000E-001	3.87873E-004	6	..........a	-327.68
	80	8.1	-1.64740E-001	-2.14940E-001	-1.89840E-001	1.19794E-008	-3.77049E-008	4.96843E-008	-2.15000E-001	4.06706E-004	6	..........a	-327.68
	81	8.2	-1.62802E-001	-2.12840E-001	-1.87821E-001	1.25545E-008	-3.68798E-008	4.94343E-008	-2.13000E-001	3.88206E-004	6	..........a	-327.68
	82	8.3	-1.60919E-001	-2.10870E-001	-1.85894E-001	1.30642E-008	-3.63664E-008	4.94306E-008	-2.11000E-001	3.81206E-004	6	..........a	-327.68
	83	8.4	-1.58906E-001	-2.08884E-001	-1.83895E-001	1.33289E-008	-3.56003E-008	4.89292E-008	-2.09000E-001	3.92039E-004	6	..........a	-327.68
	84	8.5	-1.56805E-001	-2.06902E-001	-1.81853E-001	1.39877E-008	-3.49989E-008	4.89866E-008	-2.07000E-001	3.84206E-004	6	..........a	-327.68
	85	8.6	-1.54801E-001	-2.04863E-001	-1.79832E-001	1.42637E-008	-3.43301E-008	4.85939E-008	-2.05000E-001	3.92873E-004	6	..........a	-327.68
	86	8.7	-1.52890E-001	-2.02833E-001	-1.77861E-001	1.47185E-008	-3.36444E-008	4.83628E-008	-2.03000E-001	3.69539E-004	6	..........a	-327.68
	87	8.8	-1.50912E-001	-2.00893E-001	-1.75903E-001	1.50078E-008	-3.30676E-008	4.80754E-008	-2.01000E-001	3.78539E-004	6	..........a	-327.68
	88	8.9	-1.48863E-001	-1.98914E-001	-1.73889E-001	1.53585E-008	-3.24902E-008	4.78488E-008	-1.99000E-001	3.77873E-004	6	..........a	-327.68
	89	9	-1.46848E-001	-1.96898E-001	-1.71873E-001	1.57409E-008	-3.19895E-008	4.77304E-008	-1.97000E-001	3.83206E-004	6	..........a	-327.68
	90	9.1	-1.44884E-001	-1.94874E-001	-1.69879E-001	1.60163E-008	-3.12207E-008	4.72370E-008	-1.95000E-001	3.82039E-004	6	..........a	-327.68
	91	9.2	-1.42907E-001	-1.92902E-001	-1.67905E-001	1.63017E-008	-3.09690E-008	4.72707E-008	-1.93000E-001	3.73706E-004	6	..........a	-327.68
	92	9.3	-1.40889E-001	-1.90919E-001	-1.65904E-001	1.67140E-008	-3.05616E-008	4.72757E-008	-1.91000E-001	3.79539E-004	6	..........a	-327.68
	93	9.4	-1.38769E-001	-1.88810E-001	-1.63789E-001	1.72908E-008	-2.98542E-008	4.71450E-008	-1.89000E-001	3.79373E-004	6	..........a	-327.68
	94	9.5	-1.36873E-001	-1.86835E-001	-1.61854E-001	1.73875E-008	-2.94122E-008	4.67996E-008	-1.87000E-001	3.81873E-004	6	..........a	-327.68
	95	9.6	-1.34900E-001	-1.84904E-001	-1.59902E-001	1.76252E-008	-2.88511E-008	4.64762E-008	-1.85000E-001	3.76539E-004	6	..........a	-327.68
	96	9.7	-1.32801E-001	-1.82885E-001	-1.57843E-001	1.81306E-008	-2.83837E-008	4.65142E-008	-1.83000E-001	3.79706E-004	6	..........a	-327.68
	97	9.8	-1.30794E-001	-1.80845E-001	-1.55819E-001	1.83773E-008	-2.79453E-008	4.63226E-008	-1.81000E-001	3.85373E-004	6	..........a	-327.68
	98	9.9	-1.28859E-001	-1.78816E-001	-1.53838E-001	1.87080E-008	-2.77059E-008	4.64139E-008	-1.79000E-001	3.82539E-004	6	..........a	-327.68
	99	10	-1.26915E-001	-1.76882E-001	-1.51899E-001	1.90687E-008	-2.71612E-008	4.62299E-008	-1.77000E-001	3.80706E-004	6	..........a	-327.68
	100	10.1	-1.24861E-001	-1.74906E-001	-1.49884E-001	1.92857E-008	-2.69045E-008	4.61902E-008	-1.75000E-001	3.81039E-004	6	..........a	-327.68