File: Sample Data/Concentration Curve Data/C-COM3/SWV_10Hz STD3 50  fgml 081020_#2.DTA
EXPLAIN
TAG	SQUARE_WAVE
TITLE	LABEL	Square Wave Voltammetry	Test Identifier
DATE	LABEL	8/10/2020	Date
TIME	LABEL	19:12:10	Time
NOTES	NOTES	1	Notes...
	 STD3 50  fg/mL 08102
PSTAT	PSTAT	REF600-24079	Potentiostat
VINIT	QUANT	-3.50000E-001	Initial E (V)
VFINAL	QUANT	-1.50000E-001	Final E (V)
STEPSIZE	QUANT	2.00000E+000	Step Size (mV)
TIMERRES	QUANT	3.33340E-005	&Timer Resolution
FREQUENCY	QUANT	1.00000E+001	Frequency (Hz)
PULSESIZE	QUANT	2.50000E+001	Pulse Size E (mV)
PULSEON	QUANT	1.00000E-001	Pulse &Time (s)
NOISEREJECT	TOGGLE	F	Noise Rejection
AREA	QUANT	2.00000E-002	Sample Area (cm^2)
IMODE	SELECTOR	1	I/E Range Mode
IRANGE	QUANT	1.00000E-003	Max Current (mA)
EQDELAY	IQUANT	10	Equil. Time (s)
IRCOMP	SELECTOR	0	IRComp
PFCOR	QUANT	5.00000E+001	PF Corr. (ohm)
CYCLES	IQUANT	101	C&ycles (#)
ELECTRODETYPE	SELECTOR	0	Electrode Type
STRIPPING	TOGGLE	F	Used for Stripping
POLARITY	TOGGLE	F	Signal Polarity
LINEFREQ	IQUANT	60	Line Frequency (Hz)
INTPERIOD	QUANT	3.3334E-005	Integration Period (s)
SEQUENCER	TOGGLE	TRUE	Run as Sequence
PSTATMODEL	IQUANT	4	Pstat Model
PSTATSECTION	LABEL	REF600-24079	Pstat Section
PSTATSERIALNO	LABEL	24079	Pstat Serial Number
CTRLMODE	IQUANT	1	Control Mode
ELECTROMETER	IQUANT	0	RE=0 or CS=1
IESTAB	IQUANT	2	I/E Stability
CASPEED	IQUANT	6	Control Amp Speed
CONVENTION	IQUANT	1	Current Convention
ICHRANGE	IQUANT	2	Ich Range
ICHRANGEMODE	TOGGLE	F	Ich Auto Range
ICHOFFSETENABLE	TOGGLE	F	Ich Offset Enable
ICHOFFSET	QUANT	0	Ich Offset (V)
ICHFILTER	IQUANT	2	Ich Filter
VCHRANGE	IQUANT	2	Vch Range
VCHRANGEMODE	TOGGLE	F	Vch Auto Range
VCHOFFSETENABLE	TOGGLE	F	Vch Offset Enable
VCHOFFSET	QUANT	0	Vch Offset (V)
VCHFILTER	IQUANT	2	Vch Filter
ACHRANGE	IQUANT	2	Ach Range
ACHOFFSETENABLE	TOGGLE	F	Ach Offset Enable
ACHOFFSET	QUANT	0	Ach Offset (V)
ACHFILTER	IQUANT	1	Ach Filter
IERANGELOWERLIMIT	IQUANT	1	I/E Range Lower Limit
IERANGEMODE	TOGGLE	F	I/E AutoRange
IERANGE	IQUANT	6	I/E Range
POSFEEDENABLE	TOGGLE	F	Positive Feedback IR Comp
POSFEEDRESISTANCE	QUANT	0	Positive Feedback Resistance (ohm)
ACHSELECT	IQUANT	0	Ach Select
SENSECABLEID	IQUANT	13	Sense Cable ID
PWRCABLEID	IQUANT	13	Power Cable ID
DCCALDATE	LABEL	6/30/2020	DC Calibration Date
ACCALDATE	LABEL	6/30/2020	AC Calibration Date
THERMOSELECT	IQUANT	1	Thermo Select
FRAMEWORKVERSION	LABEL	7.8.2	Framework Version
INSTRUMENTVERSION	LABEL	4.40	Instrument Version
CURVE	TABLE	101
	Pt	T	Vfwd	Vrev	Vstep	Ifwd	Irev	Idif	Sig	Ach	IERange	Over	Temp
	#	s	V	V	V	A	A	A	V	V	#	bits	deg C
	0	0.1	-3.24933E-001	-3.74912E-001	-3.49922E-001	-1.11678E-007	-2.21103E-007	1.09424E-007	-3.75000E-001	3.92373E-004	6	..........a	-327.68
	1	0.2	-3.22882E-001	-3.72930E-001	-3.47906E-001	-9.70568E-008	-2.12472E-007	1.15415E-007	-3.73000E-001	3.87539E-004	6	..........a	-327.68
	2	0.3	-3.20928E-001	-3.70789E-001	-3.45858E-001	-9.25829E-008	-2.06999E-007	1.14416E-007	-3.71000E-001	3.80039E-004	6	..........a	-327.68
	3	0.4	-3.18909E-001	-3.68971E-001	-3.43940E-001	-8.93564E-008	-2.02150E-007	1.12794E-007	-3.69000E-001	3.70539E-004	6	..........a	-327.68
	4	0.5	-3.16830E-001	-3.66946E-001	-3.41888E-001	-8.65701E-008	-1.97648E-007	1.11077E-007	-3.67000E-001	3.67873E-004	6	..........a	-327.68
	5	0.6	-3.14877E-001	-3.64853E-001	-3.39865E-001	-8.37934E-008	-1.93248E-007	1.09455E-007	-3.65000E-001	3.64706E-004	6	..........a	-327.68
	6	0.7	-3.12928E-001	-3.62843E-001	-3.37886E-001	-8.11534E-008	-1.89272E-007	1.08118E-007	-3.63000E-001	3.56039E-004	6	..........a	-327.68
	7	0.8	-3.10896E-001	-3.60915E-001	-3.35906E-001	-7.89008E-008	-1.85083E-007	1.06183E-007	-3.61000E-001	3.79039E-004	6	..........a	-327.68
	8	0.9	-3.08908E-001	-3.58918E-001	-3.33913E-001	-7.64285E-008	-1.81123E-007	1.04694E-007	-3.59000E-001	3.80873E-004	6	..........a	-327.68
	9	1	-3.06846E-001	-3.56955E-001	-3.31901E-001	-7.41609E-008	-1.77245E-007	1.03084E-007	-3.57000E-001	3.87206E-004	6	..........a	-327.68
	10	1.1	-3.04962E-001	-3.54862E-001	-3.29912E-001	-7.18482E-008	-1.73501E-007	1.01653E-007	-3.55000E-001	3.87373E-004	6	..........a	-327.68
	11	1.2	-3.02915E-001	-3.52960E-001	-3.27937E-001	-6.94846E-008	-1.69583E-007	1.00099E-007	-3.53000E-001	3.88039E-004	6	..........a	-327.68
	12	1.3	-3.00938E-001	-3.50915E-001	-3.25926E-001	-6.72503E-008	-1.66062E-007	9.88112E-008	-3.51000E-001	3.74539E-004	6	..........a	-327.68
	13	1.4	-2.98881E-001	-3.48936E-001	-3.23908E-001	-6.50810E-008	-1.62525E-007	9.74441E-008	-3.49000E-001	4.03206E-004	6	..........a	-327.68
	14	1.5	-2.96921E-001	-3.46899E-001	-3.21910E-001	-6.27631E-008	-1.58678E-007	9.59145E-008	-3.47000E-001	3.92706E-004	6	..........a	-327.68
	15	1.6	-2.94882E-001	-3.44991E-001	-3.19937E-001	-6.08135E-008	-1.55457E-007	9.46430E-008	-3.45000E-001	3.88206E-004	6	..........a	-327.68
	16	1.7	-2.92829E-001	-3.42926E-001	-3.17877E-001	-5.86792E-008	-1.52335E-007	9.36559E-008	-3.43000E-001	3.78873E-004	6	..........a	-327.68
	17	1.8	-2.90808E-001	-3.40958E-001	-3.15883E-001	-5.66496E-008	-1.49004E-007	9.23548E-008	-3.41000E-001	3.87539E-004	6	..........a	-327.68
	18	1.9	-2.88936E-001	-3.38849E-001	-3.13893E-001	-5.46090E-008	-1.45962E-007	9.13530E-008	-3.39000E-001	3.84039E-004	6	..........a	-327.68
	19	2	-2.86889E-001	-3.36917E-001	-3.11903E-001	-5.25818E-008	-1.42825E-007	9.02435E-008	-3.37000E-001	3.74539E-004	6	..........a	-327.68
	20	2.1	-2.84912E-001	-3.34922E-001	-3.09917E-001	-5.07289E-008	-1.39721E-007	8.89923E-008	-3.35000E-001	3.82039E-004	6	..........a	-327.68
	21	2.2	-2.82828E-001	-3.32893E-001	-3.07860E-001	-4.90017E-008	-1.36631E-007	8.76298E-008	-3.33000E-001	3.74539E-004	6	..........a	-327.68
	22	2.3	-2.80965E-001	-3.30844E-001	-3.05904E-001	-4.70541E-008	-1.33983E-007	8.69287E-008	-3.31000E-001	3.73539E-004	6	..........a	-327.68
	23	2.4	-2.78901E-001	-3.28937E-001	-3.03919E-001	-4.52658E-008	-1.31038E-007	8.57726E-008	-3.29000E-001	3.73539E-004	6	..........a	-327.68
	24	2.5	-2.76906E-001	-3.26926E-001	-3.01916E-001	-4.35283E-008	-1.28270E-007	8.47418E-008	-3.27000E-001	3.85206E-004	6	..........a	-327.68
	25	2.6	-2.74877E-001	-3.24938E-001	-2.99908E-001	-4.16914E-008	-1.25488E-007	8.37970E-008	-3.25000E-001	3.80206E-004	6	..........a	-327.68
	26	2.7	-2.72920E-001	-3.22888E-001	-2.97904E-001	-4.00638E-008	-1.22798E-007	8.27342E-008	-3.23000E-001	3.86206E-004	6	..........a	-327.68
	27	2.8	-2.70920E-001	-3.20924E-001	-2.95922E-001	-3.82623E-008	-1.20366E-007	8.21041E-008	-3.21000E-001	3.99373E-004	6	..........a	-327.68
	28	2.9	-2.68928E-001	-3.18916E-001	-2.93922E-001	-3.64027E-008	-1.17992E-007	8.15894E-008	-3.19000E-001	3.79373E-004	6	..........a	-327.68
	29	3	-2.66797E-001	-3.16832E-001	-2.91815E-001	-3.48815E-008	-1.15481E-007	8.05996E-008	-3.17000E-001	3.85206E-004	6	..........a	-327.68
	30	3.1	-2.64955E-001	-3.14892E-001	-2.89924E-001	-3.32106E-008	-1.13036E-007	7.98258E-008	-3.15000E-001	3.75873E-004	6	..........a	-327.68
	31	3.2	-2.62935E-001	-3.12935E-001	-2.87935E-001	-3.13664E-008	-1.10566E-007	7.91997E-008	-3.13000E-001	3.73873E-004	6	..........a	-327.68
	32	3.3	-2.60873E-001	-3.10895E-001	-2.85884E-001	-3.00742E-008	-1.08522E-007	7.84473E-008	-3.11000E-001	3.64539E-004	6	..........a	-327.68
	33	3.4	-2.58823E-001	-3.08906E-001	-2.83864E-001	-2.83404E-008	-1.06001E-007	7.76602E-008	-3.09000E-001	3.79039E-004	6	..........a	-327.68
	34	3.5	-2.56909E-001	-3.06848E-001	-2.81879E-001	-2.71205E-008	-1.03765E-007	7.66447E-008	-3.07000E-001	3.70539E-004	6	..........a	-327.68
	35	3.6	-2.54930E-001	-3.04960E-001	-2.79945E-001	-2.56693E-008	-1.02000E-007	7.63307E-008	-3.05000E-001	3.71039E-004	6	..........a	-327.68
	36	3.7	-2.52945E-001	-3.02942E-001	-2.77944E-001	-2.42812E-008	-9.99205E-008	7.56393E-008	-3.03000E-001	3.70873E-004	6	..........a	-327.68
	37	3.8	-2.50862E-001	-3.00947E-001	-2.75905E-001	-2.29603E-008	-9.79792E-008	7.50189E-008	-3.01000E-001	3.61873E-004	6	..........a	-327.68
	38	3.9	-2.48932E-001	-2.98889E-001	-2.73910E-001	-2.15482E-008	-9.59633E-008	7.44151E-008	-2.99000E-001	3.73873E-004	6	..........a	-327.68
	39	4	-2.46912E-001	-2.96946E-001	-2.71929E-001	-2.03913E-008	-9.39774E-008	7.35860E-008	-2.97000E-001	3.78706E-004	6	..........a	-327.68
	40	4.1	-2.44928E-001	-2.94936E-001	-2.69932E-001	-1.88405E-008	-9.21631E-008	7.33227E-008	-2.95000E-001	3.88706E-004	6	..........a	-327.68
	41	4.2	-2.42786E-001	-2.92766E-001	-2.67776E-001	-1.78374E-008	-9.01515E-008	7.23142E-008	-2.93000E-001	3.84873E-004	6	..........a	-327.68
	42	4.3	-2.40964E-001	-2.90826E-001	-2.65895E-001	-1.67122E-008	-8.85493E-008	7.18371E-008	-2.91000E-001	3.78706E-004	6	..........a	-327.68
	43	4.4	-2.38928E-001	-2.88971E-001	-2.63949E-001	-1.56011E-008	-8.67541E-008	7.11530E-008	-2.89000E-001	3.86206E-004	6	..........a	-327.68
	44	4.5	-2.36898E-001	-2.86916E-001	-2.61907E-001	-1.43052E-008	-8.49822E-008	7.06770E-008	-2.87000E-001	3.78539E-004	6	..........a	-327.68
	45	4.6	-2.34831E-001	-2.84910E-001	-2.59870E-001	-1.34125E-008	-8.33514E-008	6.99389E-008	-2.85000E-001	3.75206E-004	6	..........a	-327.68
	46	4.7	-2.32901E-001	-2.82844E-001	-2.57872E-001	-1.23693E-008	-8.17402E-008	6.93708E-008	-2.83000E-001	3.85706E-004	6	..........a	-327.68
	47	4.8	-2.30884E-001	-2.80990E-001	-2.55937E-001	-1.11905E-008	-8.00413E-008	6.88508E-008	-2.81000E-001	3.75873E-004	6	..........a	-327.68
	48	4.9	-2.28867E-001	-2.78912E-001	-2.53890E-001	-1.04221E-008	-7.83134E-008	6.78913E-008	-2.79000E-001	3.91206E-004	6	..........a	-327.68
	49	5	-2.26836E-001	-2.76927E-001	-2.51881E-001	-9.38861E-009	-7.67412E-008	6.73526E-008	-2.77000E-001	3.99706E-004	6	..........a	-327.68
	50	5.1	-2.24921E-001	-2.74881E-001	-2.49901E-001	-8.62818E-009	-7.53357E-008	6.67075E-008	-2.75000E-001	3.75206E-004	6	..........a	-327.68
	51	5.2	-2.22901E-001	-2.72934E-001	-2.47917E-001	-7.78774E-009	-7.35648E-008	6.57770E-008	-2.73000E-001	3.82206E-004	6	..........a	-327.68
	52	5.3	-2.20913E-001	-2.70908E-001	-2.45911E-001	-6.76028E-009	-7.23606E-008	6.56003E-008	-2.71000E-001	4.00706E-004	6	..........a	-327.68
	53	5.4	-2.18887E-001	-2.68909E-001	-2.43898E-001	-6.04352E-009	-7.09648E-008	6.49213E-008	-2.69000E-001	3.91373E-004	6	..........a	-327.68
	54	5.5	-2.16952E-001	-2.66796E-001	-2.41874E-001	-5.14540E-009	-6.93502E-008	6.42048E-008	-2.67000E-001	4.01039E-004	6	..........a	-327.68
	55	5.6	-2.14886E-001	-2.64962E-001	-2.39924E-001	-4.44698E-009	-6.80994E-008	6.36524E-008	-2.65000E-001	3.93206E-004	6	..........a	-327.68
	56	5.7	-2.12919E-001	-2.62902E-001	-2.37910E-001	-3.69822E-009	-6.63869E-008	6.26886E-008	-2.63000E-001	3.90373E-004	6	..........a	-327.68
	57	5.8	-2.10837E-001	-2.60836E-001	-2.35837E-001	-2.74443E-009	-6.50437E-008	6.22993E-008	-2.61000E-001	3.79206E-004	6	..........a	-327.68
	58	5.9	-2.08895E-001	-2.58830E-001	-2.33862E-001	-2.24204E-009	-6.40932E-008	6.18512E-008	-2.59000E-001	3.99873E-004	6	..........a	-327.68
	59	6	-2.06908E-001	-2.56911E-001	-2.31909E-001	-1.34992E-009	-6.26967E-008	6.13468E-008	-2.57000E-001	3.81873E-004	6	..........a	-327.68
	60	6.1	-2.04886E-001	-2.54912E-001	-2.29899E-001	-6.49833E-010	-6.11665E-008	6.05167E-008	-2.55000E-001	3.92039E-004	6	..........a	-327.68
	61	6.2	-2.02834E-001	-2.52939E-001	-2.27887E-001	-1.94441E-010	-6.00801E-008	5.98856E-008	-2.53000E-001	3.87206E-004	6	..........a	-327.68
	62	6.3	-2.00921E-001	-2.50875E-001	-2.25898E-001	5.30984E-010	-5.89019E-008	5.94329E-008	-2.51000E-001	3.91039E-004	6	..........a	-327.68
	63	6.4	-1.98926E-001	-2.48912E-001	-2.23919E-001	1.32509E-009	-5.75607E-008	5.88858E-008	-2.49000E-001	3.80206E-004	6	..........a	-327.68
	64	6.5	-1.96937E-001	-2.46886E-001	-2.21911E-001	1.79415E-009	-5.62736E-008	5.80677E-008	-2.47000E-001	3.77873E-004	6	..........a	-327.68
	65	6.6	-1.94887E-001	-2.44905E-001	-2.19896E-001	2.20720E-009	-5.54335E-008	5.76407E-008	-2.45000E-001	3.73706E-004	6	..........a	-327.68
	66	6.7	-1.92930E-001	-2.42792E-001	-2.17861E-001	2.78594E-009	-5.39873E-008	5.67732E-008	-2.43000E-001	3.72373E-004	6	..........a	-327.68
	67	6.8	-1.90901E-001	-2.40959E-001	-2.15930E-001	3.37001E-009	-5.30582E-008	5.64282E-008	-2.41000E-001	3.69873E-004	6	..........a	-327.68
	68	6.9	-1.88862E-001	-2.38898E-001	-2.13880E-001	3.82274E-009	-5.18697E-008	5.56924E-008	-2.39000E-001	3.69706E-004	6	..........a	-327.68
	69	7	-1.86829E-001	-2.36920E-001	-2.11874E-001	4.41881E-009	-5.09242E-008	5.53430E-008	-2.37000E-001	3.61706E-004	6	..........a	-327.68
	70	7.1	-1.84935E-001	-2.34818E-001	-2.09876E-001	5.03356E-009	-5.00114E-008	5.50450E-008	-2.35000E-001	3.59039E-004	6	..........a	-327.68
	71	7.2	-1.82895E-001	-2.32913E-001	-2.07904E-001	5.62197E-009	-4.90300E-008	5.46520E-008	-2.33000E-001	3.65539E-004	6	..........a	-327.68
	72	7.3	-1.80897E-001	-2.30910E-001	-2.05903E-001	5.97734E-009	-4.81522E-008	5.41296E-008	-2.31000E-001	3.52706E-004	6	..........a	-327.68
	73	7.4	-1.78818E-001	-2.28929E-001	-2.03874E-001	6.53375E-009	-4.72468E-008	5.37805E-008	-2.29000E-001	3.53873E-004	6	..........a	-327.68
	74	7.5	-1.76907E-001	-2.26852E-001	-2.01879E-001	6.88946E-009	-4.63983E-008	5.32878E-008	-2.27000E-001	3.58706E-004	6	..........a	-327.68
	75	7.6	-1.74922E-001	-2.24932E-001	-1.99927E-001	7.60055E-009	-4.53045E-008	5.29051E-008	-2.25000E-001	3.65206E-004	6	..........a	-327.68
	76	7.7	-1.72920E-001	-2.22901E-001	-1.97910E-001	7.95560E-009	-4.45321E-008	5.24877E-008	-2.23000E-001	3.57706E-004	6	..........a	-327.68
	77	7.8	-1.70854E-001	-2.20927E-001	-1.95890E-001	8.35465E-009	-4.37417E-008	5.20963E-008	-2.21000E-001	3.68206E-004	6	..........a	-327.68
	78	7.9	-1.68920E-001	-2.18898E-001	-1.93909E-001	8.74770E-009	-4.28585E-008	5.16062E-008	-2.19000E-001	3.66206E-004	6	..........a	-327.68
	79	8	-1.66928E-001	-2.16986E-001	-1.91957E-001	9.38144E-009	-4.21494E-008	5.15309E-008	-2.17000E-001	3.63206E-004	6	..........a	-327.68
	80	8.1	-1.64755E-001	-2.14903E-001	-1.89829E-001	9.67882E-009	-4.15894E-008	5.12682E-008	-2.15000E-001	3.57539E-004	6	..........a	-327.68
	81	8.2	-1.62800E-001	-2.12902E-001	-1.87851E-001	1.01802E-008	-4.08619E-008	5.10422E-008	-2.13000E-001	3.62706E-004	6	..........a	-327.68
	82	8.3	-1.60944E-001	-2.10850E-001	-1.85897E-001	1.04772E-008	-4.01169E-008	5.05941E-008	-2.11000E-001	3.58039E-004	6	..........a	-327.68
	83	8.4	-1.58907E-001	-2.08912E-001	-1.83909E-001	1.10233E-008	-3.91797E-008	5.02031E-008	-2.09000E-001	3.54873E-004	6	..........a	-327.68
	84	8.5	-1.56863E-001	-2.06928E-001	-1.81896E-001	1.13657E-008	-3.85657E-008	4.99314E-008	-2.07000E-001	3.33539E-004	6	..........a	-327.68
	85	8.6	-1.54828E-001	-2.04873E-001	-1.79850E-001	1.17481E-008	-3.79679E-008	4.97160E-008	-2.05000E-001	3.65539E-004	6	..........a	-327.68
	86	8.7	-1.52954E-001	-2.02847E-001	-1.77900E-001	1.22481E-008	-3.72822E-008	4.95303E-008	-2.03000E-001	3.47539E-004	6	..........a	-327.68
	87	8.8	-1.50924E-001	-2.00928E-001	-1.75926E-001	1.25919E-008	-3.66694E-008	4.92613E-008	-2.01000E-001	3.42539E-004	6	..........a	-327.68
	88	8.9	-1.48915E-001	-1.98934E-001	-1.73925E-001	1.29836E-008	-3.61000E-008	4.90836E-008	-1.99000E-001	3.49706E-004	6	..........a	-327.68
	89	9	-1.46868E-001	-1.96937E-001	-1.71903E-001	1.33533E-008	-3.55953E-008	4.89486E-008	-1.97000E-001	3.55539E-004	6	..........a	-327.68
	90	9.1	-1.44925E-001	-1.94896E-001	-1.69910E-001	1.38147E-008	-3.49982E-008	4.88129E-008	-1.95000E-001	3.47873E-004	6	..........a	-327.68
	91	9.2	-1.42938E-001	-1.92936E-001	-1.67937E-001	1.40024E-008	-3.45425E-008	4.85448E-008	-1.93000E-001	3.44706E-004	6	..........a	-327.68
	92	9.3	-1.40921E-001	-1.90916E-001	-1.65919E-001	1.45141E-008	-3.39904E-008	4.85045E-008	-1.91000E-001	3.50039E-004	6	..........a	-327.68
	93	9.4	-1.38774E-001	-1.88858E-001	-1.63816E-001	1.48445E-008	-3.33993E-008	4.82438E-008	-1.89000E-001	3.56539E-004	6	..........a	-327.68
	94	9.5	-1.36929E-001	-1.86843E-001	-1.61886E-001	1.52115E-008	-3.26509E-008	4.78624E-008	-1.87000E-001	3.46039E-004	6	..........a	-327.68
	95	9.6	-1.34939E-001	-1.84940E-001	-1.59939E-001	1.54599E-008	-3.22128E-008	4.76727E-008	-1.85000E-001	3.53206E-004	6	..........a	-327.68
	96	9.7	-1.32801E-001	-1.82912E-001	-1.57857E-001	1.59419E-008	-3.18008E-008	4.77427E-008	-1.83000E-001	3.64873E-004	6	..........a	-327.68
	97	9.8	-1.30810E-001	-1.80894E-001	-1.55852E-001	1.61786E-008	-3.14631E-008	4.76417E-008	-1.81000E-001	3.55873E-004	6	..........a	-327.68
	98	9.9	-1.28880E-001	-1.78828E-001	-1.53854E-001	1.65847E-008	-3.09957E-008	4.75804E-008	-1.79000E-001	3.46706E-004	6	..........a	-327.68
	99	10	-1.26935E-001	-1.76929E-001	-1.51932E-001	1.67620E-008	-3.06123E-008	4.73744E-008	-1.77000E-001	3.45373E-004	6	..........a	-327.68
	100	10.1	-1.24894E-001	-1.74923E-001	-1.49909E-001	1.70011E-008	-3.03386E-008	4.73397E-008	-1.75000E-001	3.49706E-004	6	..........a	-327.68