File: Sample Data/Concentration Curve Data/C-COM3/SWV_10Hz STD3 50  fgml 081020_#8.DTA
EXPLAIN
TAG	SQUARE_WAVE
TITLE	LABEL	Square Wave Voltammetry	Test Identifier
DATE	LABEL	8/10/2020	Date
TIME	LABEL	19:14:11	Time
NOTES	NOTES	1	Notes...
	 STD3 50  fg/mL 08102
PSTAT	PSTAT	REF600-24079	Potentiostat
VINIT	QUANT	-3.50000E-001	Initial E (V)
VFINAL	QUANT	-1.50000E-001	Final E (V)
STEPSIZE	QUANT	2.00000E+000	Step Size (mV)
TIMERRES	QUANT	3.33340E-005	&Timer Resolution
FREQUENCY	QUANT	1.00000E+001	Frequency (Hz)
PULSESIZE	QUANT	2.50000E+001	Pulse Size E (mV)
PULSEON	QUANT	1.00000E-001	Pulse &Time (s)
NOISEREJECT	TOGGLE	F	Noise Rejection
AREA	QUANT	2.00000E-002	Sample Area (cm^2)
IMODE	SELECTOR	1	I/E Range Mode
IRANGE	QUANT	1.00000E-003	Max Current (mA)
EQDELAY	IQUANT	10	Equil. Time (s)
IRCOMP	SELECTOR	0	IRComp
PFCOR	QUANT	5.00000E+001	PF Corr. (ohm)
CYCLES	IQUANT	101	C&ycles (#)
ELECTRODETYPE	SELECTOR	0	Electrode Type
STRIPPING	TOGGLE	F	Used for Stripping
POLARITY	TOGGLE	F	Signal Polarity
LINEFREQ	IQUANT	60	Line Frequency (Hz)
INTPERIOD	QUANT	3.3334E-005	Integration Period (s)
SEQUENCER	TOGGLE	TRUE	Run as Sequence
PSTATMODEL	IQUANT	4	Pstat Model
PSTATSECTION	LABEL	REF600-24079	Pstat Section
PSTATSERIALNO	LABEL	24079	Pstat Serial Number
CTRLMODE	IQUANT	1	Control Mode
ELECTROMETER	IQUANT	0	RE=0 or CS=1
IESTAB	IQUANT	2	I/E Stability
CASPEED	IQUANT	6	Control Amp Speed
CONVENTION	IQUANT	1	Current Convention
ICHRANGE	IQUANT	2	Ich Range
ICHRANGEMODE	TOGGLE	F	Ich Auto Range
ICHOFFSETENABLE	TOGGLE	F	Ich Offset Enable
ICHOFFSET	QUANT	0	Ich Offset (V)
ICHFILTER	IQUANT	2	Ich Filter
VCHRANGE	IQUANT	2	Vch Range
VCHRANGEMODE	TOGGLE	F	Vch Auto Range
VCHOFFSETENABLE	TOGGLE	F	Vch Offset Enable
VCHOFFSET	QUANT	0	Vch Offset (V)
VCHFILTER	IQUANT	2	Vch Filter
ACHRANGE	IQUANT	2	Ach Range
ACHOFFSETENABLE	TOGGLE	F	Ach Offset Enable
ACHOFFSET	QUANT	0	Ach Offset (V)
ACHFILTER	IQUANT	1	Ach Filter
IERANGELOWERLIMIT	IQUANT	1	I/E Range Lower Limit
IERANGEMODE	TOGGLE	F	I/E AutoRange
IERANGE	IQUANT	6	I/E Range
POSFEEDENABLE	TOGGLE	F	Positive Feedback IR Comp
POSFEEDRESISTANCE	QUANT	0	Positive Feedback Resistance (ohm)
ACHSELECT	IQUANT	0	Ach Select
SENSECABLEID	IQUANT	13	Sense Cable ID
PWRCABLEID	IQUANT	13	Power Cable ID
DCCALDATE	LABEL	6/30/2020	DC Calibration Date
ACCALDATE	LABEL	6/30/2020	AC Calibration Date
THERMOSELECT	IQUANT	1	Thermo Select
FRAMEWORKVERSION	LABEL	7.8.2	Framework Version
INSTRUMENTVERSION	LABEL	4.40	Instrument Version
CURVE	TABLE	101
	Pt	T	Vfwd	Vrev	Vstep	Ifwd	Irev	Idif	Sig	Ach	IERange	Over	Temp
	#	s	V	V	V	A	A	A	V	V	#	bits	deg C
	0	0.1	-3.24920E-001	-3.74916E-001	-3.49918E-001	-1.01868E-007	-1.98902E-007	9.70344E-008	-3.75000E-001	3.78206E-004	6	..........a	-327.68
	1	0.2	-3.22877E-001	-3.72924E-001	-3.47901E-001	-8.70572E-008	-1.91537E-007	1.04480E-007	-3.73000E-001	3.70539E-004	6	..........a	-327.68
	2	0.3	-3.20902E-001	-3.70795E-001	-3.45848E-001	-8.31487E-008	-1.86832E-007	1.03683E-007	-3.71000E-001	3.62706E-004	6	..........a	-327.68
	3	0.4	-3.18914E-001	-3.68991E-001	-3.43953E-001	-8.03583E-008	-1.82756E-007	1.02398E-007	-3.69000E-001	3.58706E-004	6	..........a	-327.68
	4	0.5	-3.16910E-001	-3.66933E-001	-3.41922E-001	-7.78300E-008	-1.78998E-007	1.01168E-007	-3.67000E-001	3.96873E-004	6	..........a	-327.68
	5	0.6	-3.14893E-001	-3.64939E-001	-3.39916E-001	-7.53663E-008	-1.75537E-007	1.00171E-007	-3.65000E-001	3.97206E-004	6	..........a	-327.68
	6	0.7	-3.12922E-001	-3.62850E-001	-3.37886E-001	-7.33854E-008	-1.71815E-007	9.84292E-008	-3.63000E-001	3.93873E-004	6	..........a	-327.68
	7	0.8	-3.10887E-001	-3.60931E-001	-3.35909E-001	-7.12148E-008	-1.68267E-007	9.70527E-008	-3.61000E-001	3.97873E-004	6	..........a	-327.68
	8	0.9	-3.08889E-001	-3.58894E-001	-3.33891E-001	-6.88785E-008	-1.64911E-007	9.60322E-008	-3.59000E-001	4.08873E-004	6	..........a	-327.68
	9	1	-3.06854E-001	-3.56923E-001	-3.31888E-001	-6.69663E-008	-1.61704E-007	9.47377E-008	-3.57000E-001	4.02706E-004	6	..........a	-327.68
	10	1.1	-3.04939E-001	-3.54861E-001	-3.29900E-001	-6.50230E-008	-1.58480E-007	9.34572E-008	-3.55000E-001	4.00039E-004	6	..........a	-327.68
	11	1.2	-3.02901E-001	-3.52942E-001	-3.27922E-001	-6.29191E-008	-1.55341E-007	9.24214E-008	-3.53000E-001	3.94373E-004	6	..........a	-327.68
	12	1.3	-3.00919E-001	-3.50909E-001	-3.25914E-001	-6.07475E-008	-1.52465E-007	9.17180E-008	-3.51000E-001	3.78706E-004	6	..........a	-327.68
	13	1.4	-2.98873E-001	-3.48919E-001	-3.23896E-001	-5.89162E-008	-1.49480E-007	9.05638E-008	-3.49000E-001	3.75873E-004	6	..........a	-327.68
	14	1.5	-2.96900E-001	-3.46906E-001	-3.21903E-001	-5.71160E-008	-1.46469E-007	8.93530E-008	-3.47000E-001	3.91206E-004	6	..........a	-327.68
	15	1.6	-2.94865E-001	-3.44956E-001	-3.19911E-001	-5.50354E-008	-1.43513E-007	8.84773E-008	-3.45000E-001	3.88373E-004	6	..........a	-327.68
	16	1.7	-2.92860E-001	-3.42908E-001	-3.17884E-001	-5.32555E-008	-1.40631E-007	8.73751E-008	-3.43000E-001	3.71706E-004	6	..........a	-327.68
	17	1.8	-2.90821E-001	-3.40914E-001	-3.15867E-001	-5.13736E-008	-1.37805E-007	8.64313E-008	-3.41000E-001	3.77039E-004	6	..........a	-327.68
	18	1.9	-2.88940E-001	-3.38854E-001	-3.13897E-001	-4.96097E-008	-1.35001E-007	8.53912E-008	-3.39000E-001	3.73373E-004	6	..........a	-327.68
	19	2	-2.86883E-001	-3.36927E-001	-3.11905E-001	-4.79749E-008	-1.32136E-007	8.41607E-008	-3.37000E-001	3.78706E-004	6	..........a	-327.68
	20	2.1	-2.84892E-001	-3.34906E-001	-3.09899E-001	-4.62256E-008	-1.29681E-007	8.34553E-008	-3.35000E-001	3.74706E-004	6	..........a	-327.68
	21	2.2	-2.82833E-001	-3.32888E-001	-3.07860E-001	-4.45534E-008	-1.27089E-007	8.25352E-008	-3.33000E-001	3.90039E-004	6	..........a	-327.68
	22	2.3	-2.80937E-001	-3.30848E-001	-3.05892E-001	-4.28785E-008	-1.24621E-007	8.17424E-008	-3.31000E-001	3.81206E-004	6	..........a	-327.68
	23	2.4	-2.78900E-001	-3.28933E-001	-3.03917E-001	-4.11176E-008	-1.22017E-007	8.08990E-008	-3.29000E-001	3.89206E-004	6	..........a	-327.68
	24	2.5	-2.76895E-001	-3.26902E-001	-3.01898E-001	-3.94578E-008	-1.19612E-007	8.01545E-008	-3.27000E-001	4.02039E-004	6	..........a	-327.68
	25	2.6	-2.74866E-001	-3.24904E-001	-2.99885E-001	-3.78582E-008	-1.17023E-007	7.91651E-008	-3.25000E-001	3.82706E-004	6	..........a	-327.68
	26	2.7	-2.72905E-001	-3.22883E-001	-2.97894E-001	-3.62374E-008	-1.14801E-007	7.85633E-008	-3.23000E-001	3.87039E-004	6	..........a	-327.68
	27	2.8	-2.70910E-001	-3.20893E-001	-2.95902E-001	-3.46765E-008	-1.12527E-007	7.78506E-008	-3.21000E-001	3.81873E-004	6	..........a	-327.68
	28	2.9	-2.68903E-001	-3.18933E-001	-2.93918E-001	-3.29766E-008	-1.10135E-007	7.71585E-008	-3.19000E-001	3.83873E-004	6	..........a	-327.68
	29	3	-2.66828E-001	-3.16911E-001	-2.91870E-001	-3.16471E-008	-1.08040E-007	7.63927E-008	-3.17000E-001	3.95373E-004	6	..........a	-327.68
	30	3.1	-2.64934E-001	-3.14890E-001	-2.89912E-001	-2.99662E-008	-1.05839E-007	7.58723E-008	-3.15000E-001	3.76873E-004	6	..........a	-327.68
	31	3.2	-2.62924E-001	-3.12928E-001	-2.87926E-001	-2.86784E-008	-1.03682E-007	7.50032E-008	-3.13000E-001	3.64539E-004	6	..........a	-327.68
	32	3.3	-2.60910E-001	-3.10907E-001	-2.85909E-001	-2.72506E-008	-1.02015E-007	7.47642E-008	-3.11000E-001	3.71206E-004	6	..........a	-327.68
	33	3.4	-2.58827E-001	-3.08900E-001	-2.83863E-001	-2.57677E-008	-9.98204E-008	7.40527E-008	-3.09000E-001	3.73539E-004	6	..........a	-327.68
	34	3.5	-2.56894E-001	-3.06857E-001	-2.81875E-001	-2.43482E-008	-9.79062E-008	7.35580E-008	-3.07000E-001	3.85206E-004	6	..........a	-327.68
	35	3.6	-2.54925E-001	-3.04942E-001	-2.79934E-001	-2.31904E-008	-9.59826E-008	7.27923E-008	-3.05000E-001	3.84039E-004	6	..........a	-327.68
	36	3.7	-2.52911E-001	-3.02928E-001	-2.77919E-001	-2.19462E-008	-9.39590E-008	7.20128E-008	-3.03000E-001	3.67706E-004	6	..........a	-327.68
	37	3.8	-2.50861E-001	-3.00920E-001	-2.75890E-001	-2.07561E-008	-9.22942E-008	7.15381E-008	-3.01000E-001	3.89873E-004	6	..........a	-327.68
	38	3.9	-2.48913E-001	-2.98884E-001	-2.73899E-001	-1.93605E-008	-9.04956E-008	7.11350E-008	-2.99000E-001	3.83039E-004	6	..........a	-327.68
	39	4	-2.46898E-001	-2.96929E-001	-2.71914E-001	-1.81497E-008	-8.86664E-008	7.05166E-008	-2.97000E-001	3.85706E-004	6	..........a	-327.68
	40	4.1	-2.44900E-001	-2.94914E-001	-2.69907E-001	-1.71493E-008	-8.70348E-008	6.98856E-008	-2.95000E-001	3.82039E-004	6	..........a	-327.68
	41	4.2	-2.42797E-001	-2.92843E-001	-2.67820E-001	-1.60471E-008	-8.53223E-008	6.92751E-008	-2.93000E-001	3.74873E-004	6	..........a	-327.68
	42	4.3	-2.40947E-001	-2.90835E-001	-2.65891E-001	-1.46923E-008	-8.37157E-008	6.90234E-008	-2.91000E-001	3.72373E-004	6	..........a	-327.68
	43	4.4	-2.38934E-001	-2.88940E-001	-2.63937E-001	-1.37662E-008	-8.20298E-008	6.82637E-008	-2.89000E-001	3.88706E-004	6	..........a	-327.68
	44	4.5	-2.36899E-001	-2.86893E-001	-2.61896E-001	-1.27040E-008	-8.04213E-008	6.77173E-008	-2.87000E-001	3.77539E-004	6	..........a	-327.68
	45	4.6	-2.34824E-001	-2.84901E-001	-2.59863E-001	-1.17059E-008	-7.85311E-008	6.68252E-008	-2.85000E-001	3.66373E-004	6	..........a	-327.68
	46	4.7	-2.32890E-001	-2.82837E-001	-2.57863E-001	-1.07841E-008	-7.71566E-008	6.63725E-008	-2.83000E-001	3.77873E-004	6	..........a	-327.68
	47	4.8	-2.30891E-001	-2.80957E-001	-2.55924E-001	-9.73232E-009	-7.58854E-008	6.61531E-008	-2.81000E-001	3.86373E-004	6	..........a	-327.68
	48	4.9	-2.28858E-001	-2.78897E-001	-2.53877E-001	-8.84954E-009	-7.44559E-008	6.56064E-008	-2.79000E-001	3.89706E-004	6	..........a	-327.68
	49	5	-2.26845E-001	-2.76931E-001	-2.51888E-001	-7.99410E-009	-7.29594E-008	6.49653E-008	-2.77000E-001	3.98706E-004	6	..........a	-327.68
	50	5.1	-2.24909E-001	-2.74880E-001	-2.49894E-001	-7.24400E-009	-7.15022E-008	6.42582E-008	-2.75000E-001	3.87539E-004	6	..........a	-327.68
	51	5.2	-2.22903E-001	-2.72917E-001	-2.47910E-001	-6.31822E-009	-7.02017E-008	6.38835E-008	-2.73000E-001	3.96873E-004	6	..........a	-327.68
	52	5.3	-2.20888E-001	-2.70871E-001	-2.45880E-001	-5.56779E-009	-6.87662E-008	6.31984E-008	-2.71000E-001	4.01373E-004	6	..........a	-327.68
	53	5.4	-2.18879E-001	-2.68905E-001	-2.43892E-001	-4.67168E-009	-6.73390E-008	6.26673E-008	-2.69000E-001	3.93539E-004	6	..........a	-327.68
	54	5.5	-2.16963E-001	-2.66803E-001	-2.41883E-001	-3.71522E-009	-6.59875E-008	6.22723E-008	-2.67000E-001	3.99206E-004	6	..........a	-327.68
	55	5.6	-2.14913E-001	-2.64966E-001	-2.39940E-001	-3.09881E-009	-6.44413E-008	6.13425E-008	-2.65000E-001	3.89539E-004	6	..........a	-327.68
	56	5.7	-2.12924E-001	-2.62890E-001	-2.37907E-001	-2.33205E-009	-6.34238E-008	6.10918E-008	-2.63000E-001	3.91373E-004	6	..........a	-327.68
	57	5.8	-2.10854E-001	-2.60877E-001	-2.35866E-001	-1.47360E-009	-6.19243E-008	6.04507E-008	-2.61000E-001	4.00873E-004	6	..........a	-327.68
	58	5.9	-2.08897E-001	-2.58833E-001	-2.33865E-001	-8.16854E-010	-6.08105E-008	5.99936E-008	-2.59000E-001	3.78539E-004	6	..........a	-327.68
	59	6	-2.06908E-001	-2.56900E-001	-2.31904E-001	-2.58783E-010	-5.96680E-008	5.94092E-008	-2.57000E-001	4.00873E-004	6	..........a	-327.68
	60	6.1	-2.04874E-001	-2.54882E-001	-2.29878E-001	4.90646E-010	-5.83568E-008	5.88475E-008	-2.55000E-001	3.91206E-004	6	..........a	-327.68
	61	6.2	-2.02831E-001	-2.52913E-001	-2.27872E-001	1.25741E-009	-5.72064E-008	5.84638E-008	-2.53000E-001	3.84206E-004	6	..........a	-327.68
	62	6.3	-2.00913E-001	-2.50870E-001	-2.25891E-001	1.73014E-009	-5.62289E-008	5.79590E-008	-2.51000E-001	3.72539E-004	6	..........a	-327.68
	63	6.4	-1.98925E-001	-2.48899E-001	-2.23912E-001	2.39722E-009	-5.50004E-008	5.73976E-008	-2.49000E-001	3.87039E-004	6	..........a	-327.68
	64	6.5	-1.96911E-001	-2.46876E-001	-2.21894E-001	2.90329E-009	-5.38506E-008	5.67539E-008	-2.47000E-001	3.66539E-004	6	..........a	-327.68
	65	6.6	-1.94883E-001	-2.44893E-001	-2.19888E-001	3.36768E-009	-5.26188E-008	5.59865E-008	-2.45000E-001	3.72873E-004	6	..........a	-327.68
	66	6.7	-1.92909E-001	-2.42802E-001	-2.17855E-001	3.97976E-009	-5.16783E-008	5.56581E-008	-2.43000E-001	3.69706E-004	6	..........a	-327.68
	67	6.8	-1.90926E-001	-2.40972E-001	-2.15949E-001	4.49015E-009	-5.07895E-008	5.52797E-008	-2.41000E-001	3.61373E-004	6	..........a	-327.68
	68	6.9	-1.88869E-001	-2.38917E-001	-2.13893E-001	5.01822E-009	-4.97441E-008	5.47623E-008	-2.39000E-001	3.65206E-004	6	..........a	-327.68
	69	7	-1.86849E-001	-2.36918E-001	-2.11884E-001	5.50928E-009	-4.86696E-008	5.41789E-008	-2.37000E-001	3.68706E-004	6	..........a	-327.68
	70	7.1	-1.84938E-001	-2.34839E-001	-2.09888E-001	5.95034E-009	-4.79832E-008	5.39335E-008	-2.35000E-001	3.77039E-004	6	..........a	-327.68
	71	7.2	-1.82904E-001	-2.32906E-001	-2.07905E-001	6.53341E-009	-4.68430E-008	5.33765E-008	-2.33000E-001	3.75873E-004	6	..........a	-327.68
	72	7.3	-1.80849E-001	-2.30884E-001	-2.05866E-001	7.17350E-009	-4.59179E-008	5.30914E-008	-2.31000E-001	3.76873E-004	6	..........a	-327.68
	73	7.4	-1.78825E-001	-2.28892E-001	-2.03859E-001	7.53454E-009	-4.49358E-008	5.24703E-008	-2.29000E-001	3.67373E-004	6	..........a	-327.68
	74	7.5	-1.76889E-001	-2.26846E-001	-2.01867E-001	8.13495E-009	-4.44254E-008	5.25604E-008	-2.27000E-001	3.61206E-004	6	..........a	-327.68
	75	7.6	-1.74919E-001	-2.24923E-001	-1.99921E-001	8.60201E-009	-4.35646E-008	5.21666E-008	-2.25000E-001	3.82539E-004	6	..........a	-327.68
	76	7.7	-1.72900E-001	-2.22903E-001	-1.97901E-001	9.05740E-009	-4.25538E-008	5.16112E-008	-2.23000E-001	3.77206E-004	6	..........a	-327.68
	77	7.8	-1.70858E-001	-2.20904E-001	-1.95881E-001	9.44845E-009	-4.19871E-008	5.14355E-008	-2.21000E-001	3.66039E-004	6	..........a	-327.68
	78	7.9	-1.68907E-001	-2.18892E-001	-1.93899E-001	9.97018E-009	-4.09953E-008	5.09655E-008	-2.19000E-001	3.76539E-004	6	..........a	-327.68
	79	8	-1.66920E-001	-2.16978E-001	-1.91949E-001	1.05543E-008	-4.02319E-008	5.07861E-008	-2.17000E-001	3.70373E-004	6	..........a	-327.68
	80	8.1	-1.64777E-001	-2.14919E-001	-1.89848E-001	1.08243E-008	-3.94468E-008	5.02711E-008	-2.15000E-001	3.62206E-004	6	..........a	-327.68
	81	8.2	-1.62799E-001	-2.12874E-001	-1.87836E-001	1.13380E-008	-3.87537E-008	5.00917E-008	-2.13000E-001	3.56539E-004	6	..........a	-327.68
	82	8.3	-1.60933E-001	-2.10871E-001	-1.85902E-001	1.17574E-008	-3.78929E-008	4.96503E-008	-2.11000E-001	3.69539E-004	6	..........a	-327.68
	83	8.4	-1.58917E-001	-2.08904E-001	-1.83911E-001	1.23928E-008	-3.74739E-008	4.98667E-008	-2.09000E-001	3.64206E-004	6	..........a	-327.68
	84	8.5	-1.56862E-001	-2.06923E-001	-1.81893E-001	1.26635E-008	-3.68528E-008	4.95163E-008	-2.07000E-001	3.57206E-004	6	..........a	-327.68
	85	8.6	-1.54823E-001	-2.04884E-001	-1.79854E-001	1.31856E-008	-3.59700E-008	4.91556E-008	-2.05000E-001	3.68706E-004	6	..........a	-327.68
	86	8.7	-1.52922E-001	-2.02855E-001	-1.77889E-001	1.36060E-008	-3.54166E-008	4.90226E-008	-2.03000E-001	3.64206E-004	6	..........a	-327.68
	87	8.8	-1.50919E-001	-2.00929E-001	-1.75924E-001	1.38353E-008	-3.48959E-008	4.87312E-008	-2.01000E-001	3.50539E-004	6	..........a	-327.68
	88	8.9	-1.48888E-001	-1.98926E-001	-1.73907E-001	1.43077E-008	-3.43585E-008	4.86662E-008	-1.99000E-001	3.58039E-004	6	..........a	-327.68
	89	9	-1.46858E-001	-1.96922E-001	-1.71890E-001	1.47438E-008	-3.37270E-008	4.84708E-008	-1.97000E-001	3.58039E-004	6	..........a	-327.68
	90	9.1	-1.44906E-001	-1.94884E-001	-1.69895E-001	1.50668E-008	-3.32660E-008	4.83328E-008	-1.95000E-001	3.69539E-004	6	..........a	-327.68
	91	9.2	-1.42918E-001	-1.92915E-001	-1.67917E-001	1.55712E-008	-3.25216E-008	4.80928E-008	-1.93000E-001	3.50873E-004	6	..........a	-327.68
	92	9.3	-1.40906E-001	-1.90935E-001	-1.65921E-001	1.57663E-008	-3.21222E-008	4.78884E-008	-1.91000E-001	3.63039E-004	6	..........a	-327.68
	93	9.4	-1.38789E-001	-1.88874E-001	-1.63832E-001	1.61936E-008	-3.15198E-008	4.77134E-008	-1.89000E-001	3.63206E-004	6	..........a	-327.68
	94	9.5	-1.36921E-001	-1.86864E-001	-1.61893E-001	1.63633E-008	-3.11157E-008	4.74790E-008	-1.87000E-001	3.63539E-004	6	..........a	-327.68
	95	9.6	-1.34930E-001	-1.84923E-001	-1.59926E-001	1.68327E-008	-3.07637E-008	4.75964E-008	-1.85000E-001	3.52373E-004	6	..........a	-327.68
	96	9.7	-1.32838E-001	-1.82898E-001	-1.57868E-001	1.71488E-008	-3.02573E-008	4.74060E-008	-1.83000E-001	3.73873E-004	6	..........a	-327.68
	97	9.8	-1.30822E-001	-1.80888E-001	-1.55855E-001	1.74728E-008	-2.97645E-008	4.72373E-008	-1.81000E-001	3.51206E-004	6	..........a	-327.68
	98	9.9	-1.28874E-001	-1.78842E-001	-1.53858E-001	1.78138E-008	-2.93048E-008	4.71187E-008	-1.79000E-001	3.54206E-004	6	..........a	-327.68
	99	10	-1.26918E-001	-1.76901E-001	-1.51909E-001	1.81906E-008	-2.89988E-008	4.71893E-008	-1.77000E-001	3.53873E-004	6	..........a	-327.68
	100	10.1	-1.24885E-001	-1.74909E-001	-1.49897E-001	1.84853E-008	-2.84077E-008	4.68930E-008	-1.75000E-001	3.66539E-004	6	..........a	-327.68