File: Sample Data/Concentration Curve Data/C-COM3/SWV_10Hz STD3 50  fgml 081020_#4.DTA
EXPLAIN
TAG	SQUARE_WAVE
TITLE	LABEL	Square Wave Voltammetry	Test Identifier
DATE	LABEL	8/10/2020	Date
TIME	LABEL	19:12:50	Time
NOTES	NOTES	1	Notes...
	 STD3 50  fg/mL 08102
PSTAT	PSTAT	REF600-24079	Potentiostat
VINIT	QUANT	-3.50000E-001	Initial E (V)
VFINAL	QUANT	-1.50000E-001	Final E (V)
STEPSIZE	QUANT	2.00000E+000	Step Size (mV)
TIMERRES	QUANT	3.33340E-005	&Timer Resolution
FREQUENCY	QUANT	1.00000E+001	Frequency (Hz)
PULSESIZE	QUANT	2.50000E+001	Pulse Size E (mV)
PULSEON	QUANT	1.00000E-001	Pulse &Time (s)
NOISEREJECT	TOGGLE	F	Noise Rejection
AREA	QUANT	2.00000E-002	Sample Area (cm^2)
IMODE	SELECTOR	1	I/E Range Mode
IRANGE	QUANT	1.00000E-003	Max Current (mA)
EQDELAY	IQUANT	10	Equil. Time (s)
IRCOMP	SELECTOR	0	IRComp
PFCOR	QUANT	5.00000E+001	PF Corr. (ohm)
CYCLES	IQUANT	101	C&ycles (#)
ELECTRODETYPE	SELECTOR	0	Electrode Type
STRIPPING	TOGGLE	F	Used for Stripping
POLARITY	TOGGLE	F	Signal Polarity
LINEFREQ	IQUANT	60	Line Frequency (Hz)
INTPERIOD	QUANT	3.3334E-005	Integration Period (s)
SEQUENCER	TOGGLE	TRUE	Run as Sequence
PSTATMODEL	IQUANT	4	Pstat Model
PSTATSECTION	LABEL	REF600-24079	Pstat Section
PSTATSERIALNO	LABEL	24079	Pstat Serial Number
CTRLMODE	IQUANT	1	Control Mode
ELECTROMETER	IQUANT	0	RE=0 or CS=1
IESTAB	IQUANT	2	I/E Stability
CASPEED	IQUANT	6	Control Amp Speed
CONVENTION	IQUANT	1	Current Convention
ICHRANGE	IQUANT	2	Ich Range
ICHRANGEMODE	TOGGLE	F	Ich Auto Range
ICHOFFSETENABLE	TOGGLE	F	Ich Offset Enable
ICHOFFSET	QUANT	0	Ich Offset (V)
ICHFILTER	IQUANT	2	Ich Filter
VCHRANGE	IQUANT	2	Vch Range
VCHRANGEMODE	TOGGLE	F	Vch Auto Range
VCHOFFSETENABLE	TOGGLE	F	Vch Offset Enable
VCHOFFSET	QUANT	0	Vch Offset (V)
VCHFILTER	IQUANT	2	Vch Filter
ACHRANGE	IQUANT	2	Ach Range
ACHOFFSETENABLE	TOGGLE	F	Ach Offset Enable
ACHOFFSET	QUANT	0	Ach Offset (V)
ACHFILTER	IQUANT	1	Ach Filter
IERANGELOWERLIMIT	IQUANT	1	I/E Range Lower Limit
IERANGEMODE	TOGGLE	F	I/E AutoRange
IERANGE	IQUANT	6	I/E Range
POSFEEDENABLE	TOGGLE	F	Positive Feedback IR Comp
POSFEEDRESISTANCE	QUANT	0	Positive Feedback Resistance (ohm)
ACHSELECT	IQUANT	0	Ach Select
SENSECABLEID	IQUANT	13	Sense Cable ID
PWRCABLEID	IQUANT	13	Power Cable ID
DCCALDATE	LABEL	6/30/2020	DC Calibration Date
ACCALDATE	LABEL	6/30/2020	AC Calibration Date
THERMOSELECT	IQUANT	1	Thermo Select
FRAMEWORKVERSION	LABEL	7.8.2	Framework Version
INSTRUMENTVERSION	LABEL	4.40	Instrument Version
CURVE	TABLE	101
	Pt	T	Vfwd	Vrev	Vstep	Ifwd	Irev	Idif	Sig	Ach	IERange	Over	Temp
	#	s	V	V	V	A	A	A	V	V	#	bits	deg C
	0	0.1	-3.24902E-001	-3.74895E-001	-3.49899E-001	-1.02810E-007	-2.02377E-007	9.95670E-008	-3.75000E-001	3.75706E-004	6	..........a	-327.68
	1	0.2	-3.22869E-001	-3.72922E-001	-3.47895E-001	-8.80543E-008	-1.94837E-007	1.06782E-007	-3.73000E-001	3.72873E-004	6	..........a	-327.68
	2	0.3	-3.20895E-001	-3.70768E-001	-3.45831E-001	-8.40951E-008	-1.89691E-007	1.05596E-007	-3.71000E-001	3.57206E-004	6	..........a	-327.68
	3	0.4	-3.18880E-001	-3.68943E-001	-3.43911E-001	-8.11401E-008	-1.85447E-007	1.04307E-007	-3.69000E-001	3.88206E-004	6	..........a	-327.68
	4	0.5	-3.16826E-001	-3.66919E-001	-3.41872E-001	-7.87214E-008	-1.81484E-007	1.02763E-007	-3.67000E-001	3.74206E-004	6	..........a	-327.68
	5	0.6	-3.14890E-001	-3.64904E-001	-3.39897E-001	-7.60751E-008	-1.78051E-007	1.01976E-007	-3.65000E-001	3.94373E-004	6	..........a	-327.68
	6	0.7	-3.12912E-001	-3.62815E-001	-3.37863E-001	-7.39282E-008	-1.74229E-007	1.00300E-007	-3.63000E-001	3.98706E-004	6	..........a	-327.68
	7	0.8	-3.10867E-001	-3.60906E-001	-3.35887E-001	-7.19069E-008	-1.70656E-007	9.87489E-008	-3.61000E-001	3.94706E-004	6	..........a	-327.68
	8	0.9	-3.08877E-001	-3.58878E-001	-3.33878E-001	-6.96666E-008	-1.67141E-007	9.74747E-008	-3.59000E-001	3.92706E-004	6	..........a	-327.68
	9	1	-3.06827E-001	-3.56895E-001	-3.31861E-001	-6.74887E-008	-1.63680E-007	9.61912E-008	-3.57000E-001	4.03873E-004	6	..........a	-327.68
	10	1.1	-3.04915E-001	-3.54833E-001	-3.29874E-001	-6.54311E-008	-1.60515E-007	9.50844E-008	-3.55000E-001	3.88373E-004	6	..........a	-327.68
	11	1.2	-3.02898E-001	-3.52912E-001	-3.27905E-001	-6.33751E-008	-1.57128E-007	9.37533E-008	-3.53000E-001	4.02373E-004	6	..........a	-327.68
	12	1.3	-3.00897E-001	-3.50889E-001	-3.25893E-001	-6.13279E-008	-1.53882E-007	9.25544E-008	-3.51000E-001	4.05539E-004	6	..........a	-327.68
	13	1.4	-2.98860E-001	-3.48911E-001	-3.23886E-001	-5.94223E-008	-1.51243E-007	9.18210E-008	-3.49000E-001	4.03039E-004	6	..........a	-327.68
	14	1.5	-2.96885E-001	-3.46887E-001	-3.21886E-001	-5.74504E-008	-1.47925E-007	9.04742E-008	-3.47000E-001	3.79539E-004	6	..........a	-327.68
	15	1.6	-2.94874E-001	-3.44983E-001	-3.19929E-001	-5.56712E-008	-1.44848E-007	8.91763E-008	-3.45000E-001	3.83039E-004	6	..........a	-327.68
	16	1.7	-2.92809E-001	-3.42916E-001	-3.17862E-001	-5.38903E-008	-1.41997E-007	8.81069E-008	-3.43000E-001	3.93539E-004	6	..........a	-327.68
	17	1.8	-2.90792E-001	-3.40868E-001	-3.15830E-001	-5.19004E-008	-1.39103E-007	8.72024E-008	-3.41000E-001	3.80373E-004	6	..........a	-327.68
	18	1.9	-2.88922E-001	-3.38846E-001	-3.13884E-001	-4.99484E-008	-1.36178E-007	8.62300E-008	-3.39000E-001	3.75706E-004	6	..........a	-327.68
	19	2	-2.86861E-001	-3.36906E-001	-3.11884E-001	-4.81362E-008	-1.33446E-007	8.53099E-008	-3.37000E-001	3.81373E-004	6	..........a	-327.68
	20	2.1	-2.84876E-001	-3.34881E-001	-3.09879E-001	-4.66117E-008	-1.30801E-007	8.41897E-008	-3.35000E-001	3.79373E-004	6	..........a	-327.68
	21	2.2	-2.82821E-001	-3.32863E-001	-3.07842E-001	-4.49141E-008	-1.27931E-007	8.30169E-008	-3.33000E-001	3.82206E-004	6	..........a	-327.68
	22	2.3	-2.80945E-001	-3.30826E-001	-3.05886E-001	-4.31849E-008	-1.25474E-007	8.22888E-008	-3.31000E-001	3.89206E-004	6	..........a	-327.68
	23	2.4	-2.78901E-001	-3.28919E-001	-3.03910E-001	-4.13930E-008	-1.23055E-007	8.16621E-008	-3.29000E-001	3.89206E-004	6	..........a	-327.68
	24	2.5	-2.76879E-001	-3.26892E-001	-3.01885E-001	-3.96735E-008	-1.20532E-007	8.08586E-008	-3.27000E-001	3.71206E-004	6	..........a	-327.68
	25	2.6	-2.74847E-001	-3.24899E-001	-2.99873E-001	-3.80239E-008	-1.18037E-007	8.00128E-008	-3.25000E-001	3.72039E-004	6	..........a	-327.68
	26	2.7	-2.72899E-001	-3.22873E-001	-2.97886E-001	-3.64817E-008	-1.15621E-007	7.91394E-008	-3.23000E-001	3.76873E-004	6	..........a	-327.68
	27	2.8	-2.70899E-001	-3.20900E-001	-2.95899E-001	-3.48939E-008	-1.13334E-007	7.84403E-008	-3.21000E-001	3.84539E-004	6	..........a	-327.68
	28	2.9	-2.68898E-001	-3.18908E-001	-2.93903E-001	-3.32393E-008	-1.11142E-007	7.79022E-008	-3.19000E-001	3.67873E-004	6	..........a	-327.68
	29	3	-2.66799E-001	-3.16854E-001	-2.91826E-001	-3.19471E-008	-1.08928E-007	7.69811E-008	-3.17000E-001	3.79039E-004	6	..........a	-327.68
	30	3.1	-2.64932E-001	-3.14892E-001	-2.89912E-001	-3.05170E-008	-1.06632E-007	7.61153E-008	-3.15000E-001	3.70706E-004	6	..........a	-327.68
	31	3.2	-2.62919E-001	-3.12921E-001	-2.87920E-001	-2.88968E-008	-1.04450E-007	7.55533E-008	-3.13000E-001	3.70873E-004	6	..........a	-327.68
	32	3.3	-2.60845E-001	-3.10880E-001	-2.85862E-001	-2.74446E-008	-1.02544E-007	7.50992E-008	-3.11000E-001	3.97373E-004	6	..........a	-327.68
	33	3.4	-2.58815E-001	-3.08884E-001	-2.83850E-001	-2.60421E-008	-1.00683E-007	7.46412E-008	-3.09000E-001	3.66039E-004	6	..........a	-327.68
	34	3.5	-2.56886E-001	-3.06835E-001	-2.81860E-001	-2.47389E-008	-9.86980E-008	7.39591E-008	-3.07000E-001	3.90706E-004	6	..........a	-327.68
	35	3.6	-2.54914E-001	-3.04940E-001	-2.79927E-001	-2.32757E-008	-9.68704E-008	7.35947E-008	-3.05000E-001	3.76373E-004	6	..........a	-327.68
	36	3.7	-2.52889E-001	-3.02921E-001	-2.77905E-001	-2.20829E-008	-9.48775E-008	7.27946E-008	-3.03000E-001	3.87039E-004	6	..........a	-327.68
	37	3.8	-2.50848E-001	-3.00911E-001	-2.75880E-001	-2.09267E-008	-9.29212E-008	7.19945E-008	-3.01000E-001	3.90206E-004	6	..........a	-327.68
	38	3.9	-2.48905E-001	-2.98868E-001	-2.73886E-001	-1.95312E-008	-9.12130E-008	7.16818E-008	-2.99000E-001	3.84706E-004	6	..........a	-327.68
	39	4	-2.46885E-001	-2.96919E-001	-2.71902E-001	-1.83334E-008	-8.94361E-008	7.11027E-008	-2.97000E-001	3.80373E-004	6	..........a	-327.68
	40	4.1	-2.44907E-001	-2.94914E-001	-2.69911E-001	-1.73663E-008	-8.76096E-008	7.02433E-008	-2.95000E-001	3.81373E-004	6	..........a	-327.68
	41	4.2	-2.42785E-001	-2.92825E-001	-2.67805E-001	-1.61641E-008	-8.61190E-008	6.99549E-008	-2.93000E-001	3.64706E-004	6	..........a	-327.68
	42	4.3	-2.40944E-001	-2.90810E-001	-2.65877E-001	-1.51763E-008	-8.41201E-008	6.89438E-008	-2.91000E-001	3.70039E-004	6	..........a	-327.68
	43	4.4	-2.38906E-001	-2.88933E-001	-2.63920E-001	-1.40772E-008	-8.26119E-008	6.85347E-008	-2.89000E-001	3.67539E-004	6	..........a	-327.68
	44	4.5	-2.36873E-001	-2.86900E-001	-2.61886E-001	-1.29587E-008	-8.09931E-008	6.80343E-008	-2.87000E-001	3.85039E-004	6	..........a	-327.68
	45	4.6	-2.34819E-001	-2.84891E-001	-2.59855E-001	-1.19613E-008	-7.95235E-008	6.75623E-008	-2.85000E-001	3.92539E-004	6	..........a	-327.68
	46	4.7	-2.32886E-001	-2.82826E-001	-2.57856E-001	-1.10065E-008	-7.78187E-008	6.68122E-008	-2.83000E-001	3.75706E-004	6	..........a	-327.68
	47	4.8	-2.30876E-001	-2.80958E-001	-2.55917E-001	-1.00614E-008	-7.62755E-008	6.62141E-008	-2.81000E-001	3.82373E-004	6	..........a	-327.68
	48	4.9	-2.28842E-001	-2.78879E-001	-2.53860E-001	-9.19192E-009	-7.47689E-008	6.55770E-008	-2.79000E-001	3.92873E-004	6	..........a	-327.68
	49	5	-2.26820E-001	-2.76937E-001	-2.51879E-001	-8.42649E-009	-7.35394E-008	6.51129E-008	-2.77000E-001	3.94706E-004	6	..........a	-327.68
	50	5.1	-2.24906E-001	-2.74870E-001	-2.49888E-001	-7.34869E-009	-7.22429E-008	6.48943E-008	-2.75000E-001	3.97206E-004	6	..........a	-327.68
	51	5.2	-2.22886E-001	-2.72906E-001	-2.47896E-001	-6.49724E-009	-7.05861E-008	6.40888E-008	-2.73000E-001	4.13706E-004	6	..........a	-327.68
	52	5.3	-2.20887E-001	-2.70886E-001	-2.45886E-001	-5.85016E-009	-6.90739E-008	6.32237E-008	-2.71000E-001	3.95539E-004	6	..........a	-327.68
	53	5.4	-2.18878E-001	-2.68901E-001	-2.43890E-001	-5.01405E-009	-6.76077E-008	6.25936E-008	-2.69000E-001	4.03706E-004	6	..........a	-327.68
	54	5.5	-2.16944E-001	-2.66793E-001	-2.41868E-001	-4.22629E-009	-6.64822E-008	6.22559E-008	-2.67000E-001	3.94039E-004	6	..........a	-327.68
	55	5.6	-2.14913E-001	-2.64942E-001	-2.39928E-001	-3.45419E-009	-6.52704E-008	6.18162E-008	-2.65000E-001	3.89539E-004	6	..........a	-327.68
	56	5.7	-2.12910E-001	-2.62893E-001	-2.37902E-001	-2.78644E-009	-6.37609E-008	6.09744E-008	-2.63000E-001	4.02039E-004	6	..........a	-327.68
	57	5.8	-2.10833E-001	-2.60849E-001	-2.35841E-001	-2.06235E-009	-6.26837E-008	6.06214E-008	-2.61000E-001	3.87039E-004	6	..........a	-327.68
	58	5.9	-2.08901E-001	-2.58815E-001	-2.33858E-001	-1.34492E-009	-6.12895E-008	5.99446E-008	-2.59000E-001	3.89373E-004	6	..........a	-327.68
	59	6	-2.06892E-001	-2.56901E-001	-2.31896E-001	-3.92133E-010	-6.01264E-008	5.97343E-008	-2.57000E-001	3.88373E-004	6	..........a	-327.68
	60	6.1	-2.04849E-001	-2.54900E-001	-2.29874E-001	1.93941E-010	-5.86916E-008	5.88855E-008	-2.55000E-001	3.92373E-004	6	..........a	-327.68
	61	6.2	-2.02832E-001	-2.52907E-001	-2.27870E-001	4.74310E-010	-5.76711E-008	5.81454E-008	-2.53000E-001	3.81873E-004	6	..........a	-327.68
	62	6.3	-2.00906E-001	-2.50861E-001	-2.25883E-001	1.18840E-009	-5.64096E-008	5.75980E-008	-2.51000E-001	3.84706E-004	6	..........a	-327.68
	63	6.4	-1.98901E-001	-2.48909E-001	-2.23905E-001	2.04518E-009	-5.56002E-008	5.76453E-008	-2.49000E-001	4.12539E-004	6	..........a	-327.68
	64	6.5	-1.96911E-001	-2.46879E-001	-2.21895E-001	2.27821E-009	-5.41756E-008	5.64538E-008	-2.47000E-001	3.85706E-004	6	..........a	-327.68
	65	6.6	-1.94870E-001	-2.44896E-001	-2.19883E-001	2.97930E-009	-5.30165E-008	5.59958E-008	-2.45000E-001	3.77539E-004	6	..........a	-327.68
	66	6.7	-1.92924E-001	-2.42791E-001	-2.17857E-001	3.57637E-009	-5.20697E-008	5.56461E-008	-2.43000E-001	3.75206E-004	6	..........a	-327.68
	67	6.8	-1.90907E-001	-2.40935E-001	-2.15921E-001	3.95509E-009	-5.11436E-008	5.50987E-008	-2.41000E-001	3.70039E-004	6	..........a	-327.68
	68	6.9	-1.88793E-001	-2.38889E-001	-2.13841E-001	4.55450E-009	-5.02218E-008	5.47763E-008	-2.39000E-001	3.64373E-004	6	..........a	-327.68
	69	7	-1.86835E-001	-2.36904E-001	-2.11869E-001	5.02956E-009	-4.90500E-008	5.40795E-008	-2.37000E-001	3.63039E-004	6	..........a	-327.68
	70	7.1	-1.84923E-001	-2.34825E-001	-2.09874E-001	5.37060E-009	-4.84429E-008	5.38135E-008	-2.35000E-001	3.68206E-004	6	..........a	-327.68
	71	7.2	-1.82866E-001	-2.32900E-001	-2.07883E-001	5.91900E-009	-4.74511E-008	5.33701E-008	-2.33000E-001	3.68206E-004	6	..........a	-327.68
	72	7.3	-1.80858E-001	-2.30882E-001	-2.05870E-001	6.39406E-009	-4.66324E-008	5.30264E-008	-2.31000E-001	3.69039E-004	6	..........a	-327.68
	73	7.4	-1.78800E-001	-2.28890E-001	-2.03845E-001	7.06515E-009	-4.57512E-008	5.28164E-008	-2.29000E-001	3.65873E-004	6	..........a	-327.68
	74	7.5	-1.76904E-001	-2.26836E-001	-2.01870E-001	7.44853E-009	-4.47731E-008	5.22216E-008	-2.27000E-001	3.55039E-004	6	..........a	-327.68
	75	7.6	-1.74911E-001	-2.24913E-001	-1.99912E-001	7.96360E-009	-4.38897E-008	5.18533E-008	-2.25000E-001	3.53873E-004	6	..........a	-327.68
	76	7.7	-1.72896E-001	-2.22900E-001	-1.97898E-001	8.47466E-009	-4.30692E-008	5.15439E-008	-2.23000E-001	3.65039E-004	6	..........a	-327.68
	77	7.8	-1.70853E-001	-2.20901E-001	-1.95877E-001	8.60468E-009	-4.25178E-008	5.11225E-008	-2.21000E-001	3.62373E-004	6	..........a	-327.68
	78	7.9	-1.68909E-001	-2.18882E-001	-1.93896E-001	9.17608E-009	-4.17537E-008	5.09298E-008	-2.19000E-001	3.53039E-004	6	..........a	-327.68
	79	8	-1.66914E-001	-2.16987E-001	-1.91951E-001	9.76583E-009	-4.10093E-008	5.07751E-008	-2.17000E-001	3.54373E-004	6	..........a	-327.68
	80	8.1	-1.64753E-001	-2.14917E-001	-1.89835E-001	1.01092E-008	-4.01492E-008	5.02584E-008	-2.15000E-001	3.53873E-004	6	..........a	-327.68
	81	8.2	-1.62787E-001	-2.12813E-001	-1.87800E-001	1.05563E-008	-3.94118E-008	4.99680E-008	-2.13000E-001	3.60539E-004	6	..........a	-327.68
	82	8.3	-1.60927E-001	-2.10841E-001	-1.85884E-001	1.09750E-008	-3.85960E-008	4.95710E-008	-2.11000E-001	3.62539E-004	6	..........a	-327.68
	83	8.4	-1.58902E-001	-2.08909E-001	-1.83905E-001	1.13604E-008	-3.80336E-008	4.93940E-008	-2.09000E-001	3.58206E-004	6	..........a	-327.68
	84	8.5	-1.56833E-001	-2.06919E-001	-1.81876E-001	1.19211E-008	-3.75225E-008	4.94436E-008	-2.07000E-001	3.59706E-004	6	..........a	-327.68
	85	8.6	-1.54822E-001	-2.04849E-001	-1.79835E-001	1.24092E-008	-3.67921E-008	4.92013E-008	-2.05000E-001	3.71206E-004	6	..........a	-327.68
	86	8.7	-1.52933E-001	-2.02842E-001	-1.77888E-001	1.26282E-008	-3.62530E-008	4.88812E-008	-2.03000E-001	3.57039E-004	6	..........a	-327.68
	87	8.8	-1.50891E-001	-2.00926E-001	-1.75909E-001	1.30486E-008	-3.52906E-008	4.83391E-008	-2.01000E-001	3.62373E-004	6	..........a	-327.68
	88	8.9	-1.48870E-001	-1.98906E-001	-1.73888E-001	1.33766E-008	-3.48609E-008	4.82375E-008	-1.99000E-001	3.63539E-004	6	..........a	-327.68
	89	9	-1.46846E-001	-1.96902E-001	-1.71874E-001	1.38740E-008	-3.43378E-008	4.82118E-008	-1.97000E-001	3.58873E-004	6	..........a	-327.68
	90	9.1	-1.44911E-001	-1.94876E-001	-1.69894E-001	1.40320E-008	-3.38287E-008	4.78608E-008	-1.95000E-001	3.45539E-004	6	..........a	-327.68
	91	9.2	-1.42914E-001	-1.92916E-001	-1.67915E-001	1.45188E-008	-3.33890E-008	4.79078E-008	-1.93000E-001	3.55539E-004	6	..........a	-327.68
	92	9.3	-1.40907E-001	-1.90925E-001	-1.65916E-001	1.48638E-008	-3.27069E-008	4.75707E-008	-1.91000E-001	3.57873E-004	6	..........a	-327.68
	93	9.4	-1.38775E-001	-1.88794E-001	-1.63785E-001	1.52789E-008	-3.22252E-008	4.75040E-008	-1.89000E-001	3.61206E-004	6	..........a	-327.68
	94	9.5	-1.36903E-001	-1.86841E-001	-1.61872E-001	1.57599E-008	-3.18308E-008	4.75907E-008	-1.87000E-001	3.56539E-004	6	..........a	-327.68
	95	9.6	-1.34917E-001	-1.84917E-001	-1.59917E-001	1.59723E-008	-3.14314E-008	4.74037E-008	-1.85000E-001	3.53706E-004	6	..........a	-327.68
	96	9.7	-1.32820E-001	-1.82883E-001	-1.57852E-001	1.62450E-008	-3.11104E-008	4.73554E-008	-1.83000E-001	3.62039E-004	6	..........a	-327.68
	97	9.8	-1.30806E-001	-1.80874E-001	-1.55840E-001	1.64080E-008	-3.03740E-008	4.67820E-008	-1.81000E-001	3.56039E-004	6	..........a	-327.68
	98	9.9	-1.28880E-001	-1.78816E-001	-1.53848E-001	1.68031E-008	-2.98479E-008	4.66509E-008	-1.79000E-001	3.51539E-004	6	..........a	-327.68
	99	10	-1.26924E-001	-1.76908E-001	-1.51916E-001	1.73451E-008	-2.95808E-008	4.69260E-008	-1.77000E-001	3.59039E-004	6	..........a	-327.68
	100	10.1	-1.24868E-001	-1.74902E-001	-1.49885E-001	1.75908E-008	-2.92848E-008	4.68756E-008	-1.75000E-001	3.48373E-004	6	..........a	-327.68