File: C-COM2/SWV_10Hz STD2 50  fgml 081020_#10.DTA
EXPLAIN
TAG	SQUARE_WAVE
TITLE	LABEL	Square Wave Voltammetry	Test Identifier
DATE	LABEL	8/10/2020	Date
TIME	LABEL	19:29:41	Time
NOTES	NOTES	1	Notes...
	 STD2 50  fg/mL 08102
PSTAT	PSTAT	REF600-24079	Potentiostat
VINIT	QUANT	-3.50000E-001	Initial E (V)
VFINAL	QUANT	-1.50000E-001	Final E (V)
STEPSIZE	QUANT	2.00000E+000	Step Size (mV)
TIMERRES	QUANT	3.33340E-005	&Timer Resolution
FREQUENCY	QUANT	1.00000E+001	Frequency (Hz)
PULSESIZE	QUANT	2.50000E+001	Pulse Size E (mV)
PULSEON	QUANT	1.00000E-001	Pulse &Time (s)
NOISEREJECT	TOGGLE	F	Noise Rejection
AREA	QUANT	2.00000E-002	Sample Area (cm^2)
IMODE	SELECTOR	1	I/E Range Mode
IRANGE	QUANT	1.00000E-003	Max Current (mA)
EQDELAY	IQUANT	10	Equil. Time (s)
IRCOMP	SELECTOR	0	IRComp
PFCOR	QUANT	5.00000E+001	PF Corr. (ohm)
CYCLES	IQUANT	101	C&ycles (#)
ELECTRODETYPE	SELECTOR	0	Electrode Type
STRIPPING	TOGGLE	F	Used for Stripping
POLARITY	TOGGLE	F	Signal Polarity
LINEFREQ	IQUANT	60	Line Frequency (Hz)
INTPERIOD	QUANT	3.3334E-005	Integration Period (s)
SEQUENCER	TOGGLE	TRUE	Run as Sequence
PSTATMODEL	IQUANT	4	Pstat Model
PSTATSECTION	LABEL	REF600-24079	Pstat Section
PSTATSERIALNO	LABEL	24079	Pstat Serial Number
CTRLMODE	IQUANT	1	Control Mode
ELECTROMETER	IQUANT	0	RE=0 or CS=1
IESTAB	IQUANT	2	I/E Stability
CASPEED	IQUANT	6	Control Amp Speed
CONVENTION	IQUANT	1	Current Convention
ICHRANGE	IQUANT	2	Ich Range
ICHRANGEMODE	TOGGLE	F	Ich Auto Range
ICHOFFSETENABLE	TOGGLE	F	Ich Offset Enable
ICHOFFSET	QUANT	0	Ich Offset (V)
ICHFILTER	IQUANT	2	Ich Filter
VCHRANGE	IQUANT	2	Vch Range
VCHRANGEMODE	TOGGLE	F	Vch Auto Range
VCHOFFSETENABLE	TOGGLE	F	Vch Offset Enable
VCHOFFSET	QUANT	0	Vch Offset (V)
VCHFILTER	IQUANT	2	Vch Filter
ACHRANGE	IQUANT	2	Ach Range
ACHOFFSETENABLE	TOGGLE	F	Ach Offset Enable
ACHOFFSET	QUANT	0	Ach Offset (V)
ACHFILTER	IQUANT	1	Ach Filter
IERANGELOWERLIMIT	IQUANT	1	I/E Range Lower Limit
IERANGEMODE	TOGGLE	F	I/E AutoRange
IERANGE	IQUANT	6	I/E Range
POSFEEDENABLE	TOGGLE	F	Positive Feedback IR Comp
POSFEEDRESISTANCE	QUANT	0	Positive Feedback Resistance (ohm)
ACHSELECT	IQUANT	0	Ach Select
SENSECABLEID	IQUANT	13	Sense Cable ID
PWRCABLEID	IQUANT	13	Power Cable ID
DCCALDATE	LABEL	6/30/2020	DC Calibration Date
ACCALDATE	LABEL	6/30/2020	AC Calibration Date
THERMOSELECT	IQUANT	1	Thermo Select
FRAMEWORKVERSION	LABEL	7.8.2	Framework Version
INSTRUMENTVERSION	LABEL	4.40	Instrument Version
CURVE	TABLE	101
	Pt	T	Vfwd	Vrev	Vstep	Ifwd	Irev	Idif	Sig	Ach	IERange	Over	Temp
	#	s	V	V	V	A	A	A	V	V	#	bits	deg C
	0	0.1	-3.24870E-001	-3.74875E-001	-3.49872E-001	-9.56436E-008	-1.86493E-007	9.08492E-008	-3.75000E-001	3.31873E-004	6	..........a	-327.68
	1	0.2	-3.22851E-001	-3.72884E-001	-3.47867E-001	-8.02460E-008	-1.79106E-007	9.88602E-008	-3.73000E-001	3.49206E-004	6	..........a	-327.68
	2	0.3	-3.20859E-001	-3.70824E-001	-3.45841E-001	-7.64215E-008	-1.74418E-007	9.79961E-008	-3.71000E-001	3.53373E-004	6	..........a	-327.68
	3	0.4	-3.18896E-001	-3.68916E-001	-3.43906E-001	-7.35768E-008	-1.70879E-007	9.73020E-008	-3.69000E-001	3.42873E-004	6	..........a	-327.68
	4	0.5	-3.16787E-001	-3.66901E-001	-3.41844E-001	-7.11878E-008	-1.67330E-007	9.61422E-008	-3.67000E-001	3.70373E-004	6	..........a	-327.68
	5	0.6	-3.14891E-001	-3.64851E-001	-3.39871E-001	-6.90129E-008	-1.63987E-007	9.49741E-008	-3.65000E-001	3.56373E-004	6	..........a	-327.68
	6	0.7	-3.12890E-001	-3.62846E-001	-3.37868E-001	-6.69876E-008	-1.60781E-007	9.37929E-008	-3.63000E-001	3.73873E-004	6	..........a	-327.68
	7	0.8	-3.10867E-001	-3.60878E-001	-3.35873E-001	-6.49063E-008	-1.57710E-007	9.28038E-008	-3.61000E-001	3.86039E-004	6	..........a	-327.68
	8	0.9	-3.08802E-001	-3.58871E-001	-3.33837E-001	-6.28884E-008	-1.54554E-007	9.16660E-008	-3.59000E-001	3.60873E-004	6	..........a	-327.68
	9	1	-3.06844E-001	-3.56860E-001	-3.31852E-001	-6.08312E-008	-1.51838E-007	9.10066E-008	-3.57000E-001	3.46373E-004	6	..........a	-327.68
	10	1.1	-3.04891E-001	-3.54833E-001	-3.29862E-001	-5.89236E-008	-1.48910E-007	8.99861E-008	-3.55000E-001	3.49873E-004	6	..........a	-327.68
	11	1.2	-3.02873E-001	-3.52897E-001	-3.27885E-001	-5.72570E-008	-1.46005E-007	8.87476E-008	-3.53000E-001	3.60039E-004	6	..........a	-327.68
	12	1.3	-3.00879E-001	-3.50884E-001	-3.25882E-001	-5.52324E-008	-1.43495E-007	8.82626E-008	-3.51000E-001	3.44873E-004	6	..........a	-327.68
	13	1.4	-2.98855E-001	-3.48869E-001	-3.23862E-001	-5.33575E-008	-1.40682E-007	8.73241E-008	-3.49000E-001	3.48873E-004	6	..........a	-327.68
	14	1.5	-2.96863E-001	-3.46872E-001	-3.21867E-001	-5.14946E-008	-1.37901E-007	8.64060E-008	-3.47000E-001	3.54373E-004	6	..........a	-327.68
	15	1.6	-2.94864E-001	-3.44885E-001	-3.19875E-001	-4.97154E-008	-1.35319E-007	8.56039E-008	-3.45000E-001	3.48039E-004	6	..........a	-327.68
	16	1.7	-2.92760E-001	-3.42904E-001	-3.17832E-001	-4.80289E-008	-1.32610E-007	8.45808E-008	-3.43000E-001	3.44873E-004	6	..........a	-327.68
	17	1.8	-2.90834E-001	-3.40889E-001	-3.15861E-001	-4.64803E-008	-1.30193E-007	8.37130E-008	-3.41000E-001	3.47706E-004	6	..........a	-327.68
	18	1.9	-2.88906E-001	-3.38865E-001	-3.13885E-001	-4.47061E-008	-1.27642E-007	8.29359E-008	-3.39000E-001	3.64873E-004	6	..........a	-327.68
	19	2	-2.86887E-001	-3.36896E-001	-3.11892E-001	-4.29929E-008	-1.25129E-007	8.21361E-008	-3.37000E-001	3.76039E-004	6	..........a	-327.68
	20	2.1	-2.84773E-001	-3.34879E-001	-3.09826E-001	-4.14710E-008	-1.22785E-007	8.13137E-008	-3.35000E-001	3.69373E-004	6	..........a	-327.68
	21	2.2	-2.82825E-001	-3.32850E-001	-3.07837E-001	-3.98852E-008	-1.20465E-007	8.05803E-008	-3.33000E-001	3.71039E-004	6	..........a	-327.68
	22	2.3	-2.80896E-001	-3.30837E-001	-3.05867E-001	-3.81066E-008	-1.18232E-007	8.01252E-008	-3.31000E-001	3.68873E-004	6	..........a	-327.68
	23	2.4	-2.78879E-001	-3.28892E-001	-3.03885E-001	-3.66144E-008	-1.16033E-007	7.94184E-008	-3.29000E-001	3.54039E-004	6	..........a	-327.68
	24	2.5	-2.76827E-001	-3.26880E-001	-3.01853E-001	-3.48348E-008	-1.13597E-007	7.87623E-008	-3.27000E-001	3.56206E-004	6	..........a	-327.68
	25	2.6	-2.74844E-001	-3.24871E-001	-2.99858E-001	-3.32873E-008	-1.11664E-007	7.83770E-008	-3.25000E-001	3.58373E-004	6	..........a	-327.68
	26	2.7	-2.72880E-001	-3.22865E-001	-2.97872E-001	-3.16428E-008	-1.09519E-007	7.78759E-008	-3.23000E-001	3.46706E-004	6	..........a	-327.68
	27	2.8	-2.70870E-001	-3.20872E-001	-2.95871E-001	-3.01753E-008	-1.07467E-007	7.72915E-008	-3.21000E-001	3.44039E-004	6	..........a	-327.68
	28	2.9	-2.68869E-001	-3.18913E-001	-2.93891E-001	-2.85057E-008	-1.05401E-007	7.68955E-008	-3.19000E-001	3.56373E-004	6	..........a	-327.68
	29	3	-2.66823E-001	-3.16826E-001	-2.91824E-001	-2.72896E-008	-1.03507E-007	7.62174E-008	-3.17000E-001	3.49873E-004	6	..........a	-327.68
	30	3.1	-2.64913E-001	-3.14900E-001	-2.89906E-001	-2.56657E-008	-1.01653E-007	7.59877E-008	-3.15000E-001	3.50706E-004	6	..........a	-327.68
	31	3.2	-2.62887E-001	-3.12910E-001	-2.87898E-001	-2.41485E-008	-9.98208E-008	7.56723E-008	-3.13000E-001	3.46039E-004	6	..........a	-327.68
	32	3.3	-2.60804E-001	-3.10889E-001	-2.85846E-001	-2.28440E-008	-9.81096E-008	7.52656E-008	-3.11000E-001	3.56373E-004	6	..........a	-327.68
	33	3.4	-2.58844E-001	-3.08865E-001	-2.83855E-001	-2.16535E-008	-9.63893E-008	7.47358E-008	-3.09000E-001	3.55539E-004	6	..........a	-327.68
	34	3.5	-2.56872E-001	-3.06855E-001	-2.81863E-001	-2.04057E-008	-9.45604E-008	7.41548E-008	-3.07000E-001	3.50706E-004	6	..........a	-327.68
	35	3.6	-2.54902E-001	-3.04891E-001	-2.79897E-001	-1.91208E-008	-9.29079E-008	7.37871E-008	-3.05000E-001	3.58206E-004	6	..........a	-327.68
	36	3.7	-2.52817E-001	-3.02897E-001	-2.77857E-001	-1.77673E-008	-9.14060E-008	7.36387E-008	-3.03000E-001	3.69706E-004	6	..........a	-327.68
	37	3.8	-2.50849E-001	-3.00846E-001	-2.75847E-001	-1.65852E-008	-8.96408E-008	7.30556E-008	-3.01000E-001	3.61206E-004	6	..........a	-327.68
	38	3.9	-2.48877E-001	-2.98867E-001	-2.73872E-001	-1.53354E-008	-8.78996E-008	7.25642E-008	-2.99000E-001	3.57039E-004	6	..........a	-327.68
	39	4	-2.46864E-001	-2.96890E-001	-2.71877E-001	-1.41672E-008	-8.64437E-008	7.22765E-008	-2.97000E-001	3.55873E-004	6	..........a	-327.68
	40	4.1	-2.44868E-001	-2.94872E-001	-2.69870E-001	-1.31204E-008	-8.49819E-008	7.18615E-008	-2.95000E-001	3.57706E-004	6	..........a	-327.68
	41	4.2	-2.42812E-001	-2.92754E-001	-2.67783E-001	-1.19269E-008	-8.34194E-008	7.14924E-008	-2.93000E-001	3.57539E-004	6	..........a	-327.68
	42	4.3	-2.40891E-001	-2.90851E-001	-2.65871E-001	-1.10222E-008	-8.20442E-008	7.10220E-008	-2.91000E-001	3.54373E-004	6	..........a	-327.68
	43	4.4	-2.38905E-001	-2.88907E-001	-2.63906E-001	-9.96868E-009	-8.05517E-008	7.05830E-008	-2.89000E-001	3.55039E-004	6	..........a	-327.68
	44	4.5	-2.36821E-001	-2.86895E-001	-2.61858E-001	-8.96122E-009	-7.91525E-008	7.01913E-008	-2.87000E-001	3.67206E-004	6	..........a	-327.68
	45	4.6	-2.34838E-001	-2.84846E-001	-2.59842E-001	-7.99743E-009	-7.77580E-008	6.97605E-008	-2.85000E-001	3.55206E-004	6	..........a	-327.68
	46	4.7	-2.32874E-001	-2.82838E-001	-2.57856E-001	-7.24901E-009	-7.64085E-008	6.91595E-008	-2.83000E-001	3.70206E-004	6	..........a	-327.68
	47	4.8	-2.30861E-001	-2.80922E-001	-2.55891E-001	-6.23854E-009	-7.49053E-008	6.86667E-008	-2.81000E-001	3.74873E-004	6	..........a	-327.68
	48	4.9	-2.28820E-001	-2.78892E-001	-2.53856E-001	-5.53779E-009	-7.36174E-008	6.80797E-008	-2.79000E-001	3.83539E-004	6	..........a	-327.68
	49	5	-2.26837E-001	-2.76871E-001	-2.51854E-001	-4.55400E-009	-7.24883E-008	6.79343E-008	-2.77000E-001	3.55539E-004	6	..........a	-327.68
	50	5.1	-2.24877E-001	-2.74868E-001	-2.49873E-001	-3.87858E-009	-7.11328E-008	6.72542E-008	-2.75000E-001	3.58873E-004	6	..........a	-327.68
	51	5.2	-2.22865E-001	-2.72881E-001	-2.47873E-001	-3.04980E-009	-6.95396E-008	6.64898E-008	-2.73000E-001	3.54706E-004	6	..........a	-327.68
	52	5.3	-2.20871E-001	-2.70858E-001	-2.45865E-001	-2.35038E-009	-6.82574E-008	6.59071E-008	-2.71000E-001	3.55039E-004	6	..........a	-327.68
	53	5.4	-2.18865E-001	-2.68866E-001	-2.43865E-001	-1.47160E-009	-6.69406E-008	6.54690E-008	-2.69000E-001	3.68706E-004	6	..........a	-327.68
	54	5.5	-2.16884E-001	-2.66825E-001	-2.41854E-001	-7.78849E-010	-6.58301E-008	6.50513E-008	-2.67000E-001	3.59706E-004	6	..........a	-327.68
	55	5.6	-2.14896E-001	-2.64920E-001	-2.39908E-001	-2.01109E-010	-6.44156E-008	6.42145E-008	-2.65000E-001	3.57206E-004	6	..........a	-327.68
	56	5.7	-2.12853E-001	-2.62864E-001	-2.37858E-001	5.71656E-010	-6.33628E-008	6.39345E-008	-2.63000E-001	3.59706E-004	6	..........a	-327.68
	57	5.8	-2.10864E-001	-2.60837E-001	-2.35850E-001	1.10439E-009	-6.20540E-008	6.31584E-008	-2.61000E-001	3.53206E-004	6	..........a	-327.68
	58	5.9	-2.08865E-001	-2.58854E-001	-2.33860E-001	1.78681E-009	-6.08035E-008	6.25903E-008	-2.59000E-001	3.55539E-004	6	..........a	-327.68
	59	6	-2.06885E-001	-2.56877E-001	-2.31881E-001	2.45056E-009	-5.97310E-008	6.21816E-008	-2.57000E-001	3.51539E-004	6	..........a	-327.68
	60	6.1	-2.04812E-001	-2.54892E-001	-2.29852E-001	2.90495E-009	-5.81828E-008	6.10878E-008	-2.55000E-001	3.45039E-004	6	..........a	-327.68
	61	6.2	-2.02835E-001	-2.52868E-001	-2.27851E-001	3.50570E-009	-5.72164E-008	6.07221E-008	-2.53000E-001	3.59206E-004	6	..........a	-327.68
	62	6.3	-2.00878E-001	-2.50871E-001	-2.25874E-001	3.87874E-009	-5.60742E-008	5.99530E-008	-2.51000E-001	3.40039E-004	6	..........a	-327.68
	63	6.4	-1.98880E-001	-2.48873E-001	-2.23877E-001	4.69685E-009	-5.48424E-008	5.95392E-008	-2.49000E-001	3.46873E-004	6	..........a	-327.68
	64	6.5	-1.96866E-001	-2.46851E-001	-2.21858E-001	4.92921E-009	-5.39290E-008	5.88582E-008	-2.47000E-001	3.49706E-004	6	..........a	-327.68
	65	6.6	-1.94855E-001	-2.44865E-001	-2.19860E-001	5.69998E-009	-5.27841E-008	5.84841E-008	-2.45000E-001	3.41373E-004	6	..........a	-327.68
	66	6.7	-1.92880E-001	-2.42818E-001	-2.17849E-001	5.95234E-009	-5.16093E-008	5.75617E-008	-2.43000E-001	3.41039E-004	6	..........a	-327.68
	67	6.8	-1.90885E-001	-2.40918E-001	-2.15902E-001	6.48341E-009	-5.07235E-008	5.72069E-008	-2.41000E-001	3.49873E-004	6	..........a	-327.68
	68	6.9	-1.88720E-001	-2.38900E-001	-2.13810E-001	7.05815E-009	-4.96561E-008	5.67142E-008	-2.39000E-001	3.33039E-004	6	..........a	-327.68
	69	7	-1.86833E-001	-2.36880E-001	-2.11857E-001	7.58755E-009	-4.87860E-008	5.63735E-008	-2.37000E-001	3.48206E-004	6	..........a	-327.68
	70	7.1	-1.84878E-001	-2.34848E-001	-2.09863E-001	8.22830E-009	-4.79035E-008	5.61318E-008	-2.35000E-001	3.40873E-004	6	..........a	-327.68
	71	7.2	-1.82864E-001	-2.32867E-001	-2.07865E-001	8.66902E-009	-4.70204E-008	5.56894E-008	-2.33000E-001	3.48539E-004	6	..........a	-327.68
	72	7.3	-1.80773E-001	-2.30880E-001	-2.05827E-001	9.13775E-009	-4.61186E-008	5.52564E-008	-2.31000E-001	3.43039E-004	6	..........a	-327.68
	73	7.4	-1.78800E-001	-2.28846E-001	-2.03823E-001	9.65248E-009	-4.51102E-008	5.47626E-008	-2.29000E-001	3.34373E-004	6	..........a	-327.68
	74	7.5	-1.76846E-001	-2.26849E-001	-2.01847E-001	1.01235E-008	-4.40870E-008	5.42106E-008	-2.27000E-001	3.43873E-004	6	..........a	-327.68
	75	7.6	-1.74862E-001	-2.24895E-001	-1.99878E-001	1.03919E-008	-4.36206E-008	5.40125E-008	-2.25000E-001	3.28873E-004	6	..........a	-327.68
	76	7.7	-1.72822E-001	-2.22879E-001	-1.97851E-001	1.08650E-008	-4.27605E-008	5.36255E-008	-2.23000E-001	3.27373E-004	6	..........a	-327.68
	77	7.8	-1.70822E-001	-2.20865E-001	-1.95844E-001	1.14554E-008	-4.18621E-008	5.33175E-008	-2.21000E-001	3.32706E-004	6	..........a	-327.68
	78	7.9	-1.68866E-001	-2.18866E-001	-1.93866E-001	1.18154E-008	-4.12180E-008	5.30334E-008	-2.19000E-001	3.55039E-004	6	..........a	-327.68
	79	8	-1.66877E-001	-2.16908E-001	-1.91892E-001	1.22818E-008	-4.04912E-008	5.27730E-008	-2.17000E-001	3.30873E-004	6	..........a	-327.68
	80	8.1	-1.64729E-001	-2.14899E-001	-1.89814E-001	1.27009E-008	-3.97358E-008	5.24367E-008	-2.15000E-001	3.43039E-004	6	..........a	-327.68
	81	8.2	-1.62811E-001	-2.12753E-001	-1.87782E-001	1.28676E-008	-3.90224E-008	5.18899E-008	-2.13000E-001	3.41206E-004	6	..........a	-327.68
	82	8.3	-1.60883E-001	-2.10866E-001	-1.85875E-001	1.34466E-008	-3.83386E-008	5.17853E-008	-2.11000E-001	3.41706E-004	6	..........a	-327.68
	83	8.4	-1.58871E-001	-2.08875E-001	-1.83873E-001	1.38603E-008	-3.78586E-008	5.17189E-008	-2.09000E-001	3.38539E-004	6	..........a	-327.68
	84	8.5	-1.56778E-001	-2.06884E-001	-1.81831E-001	1.43627E-008	-3.70418E-008	5.14045E-008	-2.07000E-001	3.43539E-004	6	..........a	-327.68
	85	8.6	-1.54803E-001	-2.04817E-001	-1.79810E-001	1.46101E-008	-3.63584E-008	5.09685E-008	-2.05000E-001	3.41206E-004	6	..........a	-327.68
	86	8.7	-1.52873E-001	-2.02829E-001	-1.77851E-001	1.50942E-008	-3.57650E-008	5.08591E-008	-2.03000E-001	3.38873E-004	6	..........a	-327.68
	87	8.8	-1.50882E-001	-2.00882E-001	-1.75882E-001	1.54585E-008	-3.51039E-008	5.05624E-008	-2.01000E-001	3.45873E-004	6	..........a	-327.68
	88	8.9	-1.48823E-001	-1.98890E-001	-1.73856E-001	1.58406E-008	-3.47328E-008	5.05734E-008	-1.99000E-001	3.45873E-004	6	..........a	-327.68
	89	9	-1.46840E-001	-1.96876E-001	-1.71858E-001	1.62216E-008	-3.40524E-008	5.02741E-008	-1.97000E-001	3.47039E-004	6	..........a	-327.68
	90	9.1	-1.44856E-001	-1.94859E-001	-1.69858E-001	1.65717E-008	-3.35664E-008	5.01380E-008	-1.95000E-001	3.41539E-004	6	..........a	-327.68
	91	9.2	-1.42871E-001	-1.92870E-001	-1.67871E-001	1.69644E-008	-3.29836E-008	4.99480E-008	-1.93000E-001	3.38373E-004	6	..........a	-327.68
	92	9.3	-1.40848E-001	-1.90901E-001	-1.65875E-001	1.72111E-008	-3.23385E-008	4.95496E-008	-1.91000E-001	3.30873E-004	6	..........a	-327.68
	93	9.4	-1.38803E-001	-1.88768E-001	-1.63785E-001	1.75368E-008	-3.19351E-008	4.94720E-008	-1.89000E-001	3.40206E-004	6	..........a	-327.68
	94	9.5	-1.36874E-001	-1.86858E-001	-1.61866E-001	1.79689E-008	-3.14948E-008	4.94636E-008	-1.87000E-001	3.50373E-004	6	..........a	-327.68
	95	9.6	-1.34875E-001	-1.84901E-001	-1.59888E-001	1.83706E-008	-3.12627E-008	4.96333E-008	-1.85000E-001	3.40373E-004	6	..........a	-327.68
	96	9.7	-1.32792E-001	-1.82880E-001	-1.57836E-001	1.86713E-008	-3.06683E-008	4.93396E-008	-1.83000E-001	3.40706E-004	6	..........a	-327.68
	97	9.8	-1.30819E-001	-1.80809E-001	-1.55814E-001	1.89797E-008	-3.02249E-008	4.92046E-008	-1.81000E-001	3.39373E-004	6	..........a	-327.68
	98	9.9	-1.28866E-001	-1.78833E-001	-1.53849E-001	1.93667E-008	-2.98185E-008	4.91853E-008	-1.79000E-001	3.27206E-004	6	..........a	-327.68
	99	10	-1.26883E-001	-1.76867E-001	-1.51875E-001	1.95647E-008	-2.96125E-008	4.91773E-008	-1.77000E-001	3.35706E-004	6	..........a	-327.68
	100	10.1	-1.24825E-001	-1.74883E-001	-1.49854E-001	2.00201E-008	-2.90791E-008	4.90992E-008	-1.75000E-001	3.44706E-004	6	..........a	-327.68