File: C-COM2/SWV_10Hz STD2 100  fgml 081020_#4.DTA
EXPLAIN
TAG	SQUARE_WAVE
TITLE	LABEL	Square Wave Voltammetry	Test Identifier
DATE	LABEL	8/10/2020	Date
TIME	LABEL	20:42:29	Time
NOTES	NOTES	1	Notes...
	 STD2 100  fg/mL 08102
PSTAT	PSTAT	REF600-24079	Potentiostat
VINIT	QUANT	-3.50000E-001	Initial E (V)
VFINAL	QUANT	-1.50000E-001	Final E (V)
STEPSIZE	QUANT	2.00000E+000	Step Size (mV)
TIMERRES	QUANT	3.33340E-005	&Timer Resolution
FREQUENCY	QUANT	1.00000E+001	Frequency (Hz)
PULSESIZE	QUANT	2.50000E+001	Pulse Size E (mV)
PULSEON	QUANT	1.00000E-001	Pulse &Time (s)
NOISEREJECT	TOGGLE	F	Noise Rejection
AREA	QUANT	2.00000E-002	Sample Area (cm^2)
IMODE	SELECTOR	1	I/E Range Mode
IRANGE	QUANT	1.00000E-003	Max Current (mA)
EQDELAY	IQUANT	10	Equil. Time (s)
IRCOMP	SELECTOR	0	IRComp
PFCOR	QUANT	5.00000E+001	PF Corr. (ohm)
CYCLES	IQUANT	101	C&ycles (#)
ELECTRODETYPE	SELECTOR	0	Electrode Type
STRIPPING	TOGGLE	F	Used for Stripping
POLARITY	TOGGLE	F	Signal Polarity
LINEFREQ	IQUANT	60	Line Frequency (Hz)
INTPERIOD	QUANT	3.3334E-005	Integration Period (s)
SEQUENCER	TOGGLE	TRUE	Run as Sequence
PSTATMODEL	IQUANT	4	Pstat Model
PSTATSECTION	LABEL	REF600-24079	Pstat Section
PSTATSERIALNO	LABEL	24079	Pstat Serial Number
CTRLMODE	IQUANT	1	Control Mode
ELECTROMETER	IQUANT	0	RE=0 or CS=1
IESTAB	IQUANT	2	I/E Stability
CASPEED	IQUANT	6	Control Amp Speed
CONVENTION	IQUANT	1	Current Convention
ICHRANGE	IQUANT	2	Ich Range
ICHRANGEMODE	TOGGLE	F	Ich Auto Range
ICHOFFSETENABLE	TOGGLE	F	Ich Offset Enable
ICHOFFSET	QUANT	0	Ich Offset (V)
ICHFILTER	IQUANT	2	Ich Filter
VCHRANGE	IQUANT	2	Vch Range
VCHRANGEMODE	TOGGLE	F	Vch Auto Range
VCHOFFSETENABLE	TOGGLE	F	Vch Offset Enable
VCHOFFSET	QUANT	0	Vch Offset (V)
VCHFILTER	IQUANT	2	Vch Filter
ACHRANGE	IQUANT	2	Ach Range
ACHOFFSETENABLE	TOGGLE	F	Ach Offset Enable
ACHOFFSET	QUANT	0	Ach Offset (V)
ACHFILTER	IQUANT	1	Ach Filter
IERANGELOWERLIMIT	IQUANT	1	I/E Range Lower Limit
IERANGEMODE	TOGGLE	F	I/E AutoRange
IERANGE	IQUANT	6	I/E Range
POSFEEDENABLE	TOGGLE	F	Positive Feedback IR Comp
POSFEEDRESISTANCE	QUANT	0	Positive Feedback Resistance (ohm)
ACHSELECT	IQUANT	0	Ach Select
SENSECABLEID	IQUANT	13	Sense Cable ID
PWRCABLEID	IQUANT	13	Power Cable ID
DCCALDATE	LABEL	6/30/2020	DC Calibration Date
ACCALDATE	LABEL	6/30/2020	AC Calibration Date
THERMOSELECT	IQUANT	1	Thermo Select
FRAMEWORKVERSION	LABEL	7.8.2	Framework Version
INSTRUMENTVERSION	LABEL	4.40	Instrument Version
CURVE	TABLE	101
	Pt	T	Vfwd	Vrev	Vstep	Ifwd	Irev	Idif	Sig	Ach	IERange	Over	Temp
	#	s	V	V	V	A	A	A	V	V	#	bits	deg C
	0	0.1	-3.24886E-001	-3.74921E-001	-3.49903E-001	-9.12487E-008	-1.88541E-007	9.72920E-008	-3.75000E-001	3.81873E-004	6	..........a	-327.68
	1	0.2	-3.22883E-001	-3.72911E-001	-3.47897E-001	-7.59848E-008	-1.80460E-007	1.04475E-007	-3.73000E-001	3.91706E-004	6	..........a	-327.68
	2	0.3	-3.20904E-001	-3.70792E-001	-3.45848E-001	-7.19432E-008	-1.75811E-007	1.03868E-007	-3.71000E-001	4.02373E-004	6	..........a	-327.68
	3	0.4	-3.18950E-001	-3.68975E-001	-3.43963E-001	-6.91766E-008	-1.71359E-007	1.02182E-007	-3.69000E-001	3.93873E-004	6	..........a	-327.68
	4	0.5	-3.16803E-001	-3.66954E-001	-3.41879E-001	-6.65395E-008	-1.67820E-007	1.01280E-007	-3.67000E-001	3.99706E-004	6	..........a	-327.68
	5	0.6	-3.14899E-001	-3.64899E-001	-3.39899E-001	-6.43153E-008	-1.63941E-007	9.96260E-008	-3.65000E-001	4.10873E-004	6	..........a	-327.68
	6	0.7	-3.12912E-001	-3.62819E-001	-3.37866E-001	-6.19600E-008	-1.60198E-007	9.82382E-008	-3.63000E-001	4.11539E-004	6	..........a	-327.68
	7	0.8	-3.10905E-001	-3.60904E-001	-3.35905E-001	-5.98637E-008	-1.56910E-007	9.70460E-008	-3.61000E-001	3.95873E-004	6	..........a	-327.68
	8	0.9	-3.08893E-001	-3.58907E-001	-3.33900E-001	-5.78551E-008	-1.53590E-007	9.57348E-008	-3.59000E-001	3.90873E-004	6	..........a	-327.68
	9	1	-3.06852E-001	-3.56895E-001	-3.31874E-001	-5.59729E-008	-1.50329E-007	9.43560E-008	-3.57000E-001	3.98873E-004	6	..........a	-327.68
	10	1.1	-3.04913E-001	-3.54860E-001	-3.29887E-001	-5.38839E-008	-1.47151E-007	9.32668E-008	-3.55000E-001	3.91873E-004	6	..........a	-327.68
	11	1.2	-3.02912E-001	-3.52933E-001	-3.27923E-001	-5.19174E-008	-1.44061E-007	9.21434E-008	-3.53000E-001	3.93706E-004	6	..........a	-327.68
	12	1.3	-3.00918E-001	-3.50916E-001	-3.25917E-001	-5.00271E-008	-1.41147E-007	9.11203E-008	-3.51000E-001	3.94039E-004	6	..........a	-327.68
	13	1.4	-2.98872E-001	-3.48903E-001	-3.23887E-001	-4.84446E-008	-1.38058E-007	8.96134E-008	-3.49000E-001	3.99539E-004	6	..........a	-327.68
	14	1.5	-2.96919E-001	-3.46895E-001	-3.21907E-001	-4.64663E-008	-1.35179E-007	8.87126E-008	-3.47000E-001	3.83206E-004	6	..........a	-327.68
	15	1.6	-2.94898E-001	-3.44948E-001	-3.19923E-001	-4.48581E-008	-1.32218E-007	8.73601E-008	-3.45000E-001	3.75206E-004	6	..........a	-327.68
	16	1.7	-2.92781E-001	-3.42937E-001	-3.17859E-001	-4.29496E-008	-1.29243E-007	8.62930E-008	-3.43000E-001	3.82706E-004	6	..........a	-327.68
	17	1.8	-2.90814E-001	-3.40934E-001	-3.15874E-001	-4.12657E-008	-1.26579E-007	8.53132E-008	-3.41000E-001	3.65706E-004	6	..........a	-327.68
	18	1.9	-2.88934E-001	-3.38860E-001	-3.13897E-001	-3.96038E-008	-1.24167E-007	8.45628E-008	-3.39000E-001	3.96539E-004	6	..........a	-327.68
	19	2	-2.86909E-001	-3.36905E-001	-3.11907E-001	-3.78869E-008	-1.21404E-007	8.35173E-008	-3.37000E-001	3.75373E-004	6	..........a	-327.68
	20	2.1	-2.84827E-001	-3.34904E-001	-3.09866E-001	-3.61667E-008	-1.18928E-007	8.27615E-008	-3.35000E-001	3.99873E-004	6	..........a	-327.68
	21	2.2	-2.82831E-001	-3.32831E-001	-3.07831E-001	-3.44135E-008	-1.16499E-007	8.20854E-008	-3.33000E-001	3.77539E-004	6	..........a	-327.68
	22	2.3	-2.80921E-001	-3.30831E-001	-3.05876E-001	-3.27666E-008	-1.14100E-007	8.13334E-008	-3.31000E-001	3.84206E-004	6	..........a	-327.68
	23	2.4	-2.78902E-001	-3.28906E-001	-3.03904E-001	-3.13141E-008	-1.11551E-007	8.02369E-008	-3.29000E-001	3.86706E-004	6	..........a	-327.68
	24	2.5	-2.76897E-001	-3.26911E-001	-3.01904E-001	-2.99202E-008	-1.09310E-007	7.93898E-008	-3.27000E-001	3.87706E-004	6	..........a	-327.68
	25	2.6	-2.74868E-001	-3.24909E-001	-2.99888E-001	-2.81880E-008	-1.07094E-007	7.89060E-008	-3.25000E-001	3.91039E-004	6	..........a	-327.68
	26	2.7	-2.72898E-001	-3.22887E-001	-2.97893E-001	-2.65818E-008	-1.04852E-007	7.82699E-008	-3.23000E-001	3.90706E-004	6	..........a	-327.68
	27	2.8	-2.70900E-001	-3.20912E-001	-2.95906E-001	-2.51690E-008	-1.02771E-007	7.76022E-008	-3.21000E-001	3.84206E-004	6	..........a	-327.68
	28	2.9	-2.68912E-001	-3.18948E-001	-2.93930E-001	-2.36061E-008	-1.00787E-007	7.71805E-008	-3.19000E-001	3.77539E-004	6	..........a	-327.68
	29	3	-2.66798E-001	-3.16830E-001	-2.91814E-001	-2.23029E-008	-9.87986E-008	7.64957E-008	-3.17000E-001	3.83039E-004	6	..........a	-327.68
	30	3.1	-2.64921E-001	-3.14905E-001	-2.89913E-001	-2.09194E-008	-9.67414E-008	7.58220E-008	-3.15000E-001	3.81039E-004	6	..........a	-327.68
	31	3.2	-2.62920E-001	-3.12930E-001	-2.87925E-001	-1.96312E-008	-9.47955E-008	7.51642E-008	-3.13000E-001	4.00706E-004	6	..........a	-327.68
	32	3.3	-2.60842E-001	-3.10907E-001	-2.85875E-001	-1.83798E-008	-9.29172E-008	7.45375E-008	-3.11000E-001	3.91873E-004	6	..........a	-327.68
	33	3.4	-2.58839E-001	-3.08807E-001	-2.83823E-001	-1.71303E-008	-9.11157E-008	7.39854E-008	-3.09000E-001	3.94706E-004	6	..........a	-327.68
	34	3.5	-2.56895E-001	-3.06852E-001	-2.81874E-001	-1.55934E-008	-8.94981E-008	7.39047E-008	-3.07000E-001	3.77706E-004	6	..........a	-327.68
	35	3.6	-2.54933E-001	-3.04920E-001	-2.79927E-001	-1.43216E-008	-8.74452E-008	7.31236E-008	-3.05000E-001	3.83039E-004	6	..........a	-327.68
	36	3.7	-2.52880E-001	-3.02933E-001	-2.77906E-001	-1.31144E-008	-8.57983E-008	7.26839E-008	-3.03000E-001	3.88039E-004	6	..........a	-327.68
	37	3.8	-2.50857E-001	-3.00926E-001	-2.75892E-001	-1.20379E-008	-8.41821E-008	7.21442E-008	-3.01000E-001	3.89873E-004	6	..........a	-327.68
	38	3.9	-2.48915E-001	-2.98890E-001	-2.73903E-001	-1.09658E-008	-8.27766E-008	7.18108E-008	-2.99000E-001	3.75706E-004	6	..........a	-327.68
	39	4	-2.46902E-001	-2.96911E-001	-2.71907E-001	-9.75232E-009	-8.09664E-008	7.12141E-008	-2.97000E-001	3.80873E-004	6	..........a	-327.68
	40	4.1	-2.44908E-001	-2.94897E-001	-2.69903E-001	-8.79820E-009	-7.95572E-008	7.07590E-008	-2.95000E-001	3.72873E-004	6	..........a	-327.68
	41	4.2	-2.42788E-001	-2.92802E-001	-2.67795E-001	-7.83875E-009	-7.77693E-008	6.99306E-008	-2.93000E-001	3.99039E-004	6	..........a	-327.68
	42	4.3	-2.40913E-001	-2.90823E-001	-2.65868E-001	-6.71660E-009	-7.64285E-008	6.97119E-008	-2.91000E-001	4.13039E-004	6	..........a	-327.68
	43	4.4	-2.38946E-001	-2.88944E-001	-2.63945E-001	-5.61880E-009	-7.50466E-008	6.94278E-008	-2.89000E-001	4.07373E-004	6	..........a	-327.68
	44	4.5	-2.36907E-001	-2.86913E-001	-2.61910E-001	-4.98638E-009	-7.35704E-008	6.85841E-008	-2.87000E-001	4.16373E-004	6	..........a	-327.68
	45	4.6	-2.34829E-001	-2.84905E-001	-2.59867E-001	-3.94325E-009	-7.22399E-008	6.82967E-008	-2.85000E-001	3.92373E-004	6	..........a	-327.68
	46	4.7	-2.32892E-001	-2.82831E-001	-2.57862E-001	-3.04280E-009	-7.07067E-008	6.76639E-008	-2.83000E-001	3.98706E-004	6	..........a	-327.68
	47	4.8	-2.30901E-001	-2.80954E-001	-2.55927E-001	-2.17269E-009	-6.93866E-008	6.72139E-008	-2.81000E-001	3.90039E-004	6	..........a	-327.68
	48	4.9	-2.28859E-001	-2.78897E-001	-2.53878E-001	-1.58095E-009	-6.80467E-008	6.64658E-008	-2.79000E-001	3.88539E-004	6	..........a	-327.68
	49	5	-2.26838E-001	-2.76916E-001	-2.51877E-001	-6.94505E-010	-6.68249E-008	6.61304E-008	-2.77000E-001	3.96373E-004	6	..........a	-327.68
	50	5.1	-2.24914E-001	-2.74870E-001	-2.49892E-001	9.75958E-011	-6.54187E-008	6.55163E-008	-2.75000E-001	3.89873E-004	6	..........a	-327.68
	51	5.2	-2.22906E-001	-2.72914E-001	-2.47910E-001	7.16674E-010	-6.41959E-008	6.49126E-008	-2.73000E-001	3.97539E-004	6	..........a	-327.68
	52	5.3	-2.20903E-001	-2.70886E-001	-2.45894E-001	1.32309E-009	-6.27187E-008	6.40418E-008	-2.71000E-001	3.98706E-004	6	..........a	-327.68
	53	5.4	-2.18892E-001	-2.68892E-001	-2.43892E-001	1.95583E-009	-6.13639E-008	6.33197E-008	-2.69000E-001	3.85706E-004	6	..........a	-327.68
	54	5.5	-2.16915E-001	-2.66803E-001	-2.41859E-001	2.36888E-009	-6.02164E-008	6.25853E-008	-2.67000E-001	3.93539E-004	6	..........a	-327.68
	55	5.6	-2.14928E-001	-2.64937E-001	-2.39932E-001	2.95829E-009	-5.89949E-008	6.19532E-008	-2.65000E-001	3.89539E-004	6	..........a	-327.68
	56	5.7	-2.12899E-001	-2.62895E-001	-2.37897E-001	3.65271E-009	-5.78154E-008	6.14682E-008	-2.63000E-001	3.77039E-004	6	..........a	-327.68
	57	5.8	-2.10875E-001	-2.60912E-001	-2.35894E-001	4.04410E-009	-5.65283E-008	6.05724E-008	-2.61000E-001	3.91539E-004	6	..........a	-327.68
	58	5.9	-2.08904E-001	-2.58837E-001	-2.33870E-001	4.45415E-009	-5.54381E-008	5.98923E-008	-2.59000E-001	3.99873E-004	6	..........a	-327.68
	59	6	-2.06915E-001	-2.56910E-001	-2.31912E-001	5.05389E-009	-5.44263E-008	5.94802E-008	-2.57000E-001	3.77206E-004	6	..........a	-327.68
	60	6.1	-2.04856E-001	-2.54922E-001	-2.29889E-001	5.66530E-009	-5.28758E-008	5.85411E-008	-2.55000E-001	3.82039E-004	6	..........a	-327.68
	61	6.2	-2.02842E-001	-2.52911E-001	-2.27877E-001	6.16904E-009	-5.18197E-008	5.79887E-008	-2.53000E-001	3.73706E-004	6	..........a	-327.68
	62	6.3	-2.00904E-001	-2.50870E-001	-2.25887E-001	6.69777E-009	-5.10229E-008	5.77207E-008	-2.51000E-001	3.69706E-004	6	..........a	-327.68
	63	6.4	-1.98921E-001	-2.48910E-001	-2.23915E-001	7.08915E-009	-4.99648E-008	5.70539E-008	-2.49000E-001	3.68206E-004	6	..........a	-327.68
	64	6.5	-1.96900E-001	-2.46902E-001	-2.21901E-001	7.61989E-009	-4.89430E-008	5.65629E-008	-2.47000E-001	3.73873E-004	6	..........a	-327.68
	65	6.6	-1.94874E-001	-2.44909E-001	-2.19892E-001	8.06961E-009	-4.80305E-008	5.61001E-008	-2.45000E-001	3.62873E-004	6	..........a	-327.68
	66	6.7	-1.92911E-001	-2.42807E-001	-2.17859E-001	8.47700E-009	-4.69537E-008	5.54307E-008	-2.43000E-001	3.70706E-004	6	..........a	-327.68
	67	6.8	-1.90938E-001	-2.40935E-001	-2.15937E-001	9.02607E-009	-4.59036E-008	5.49297E-008	-2.41000E-001	3.75873E-004	6	..........a	-327.68
	68	6.9	-1.88755E-001	-2.38919E-001	-2.13837E-001	9.47179E-009	-4.51495E-008	5.46213E-008	-2.39000E-001	3.68539E-004	6	..........a	-327.68
	69	7	-1.86810E-001	-2.36919E-001	-2.11864E-001	9.85150E-009	-4.40364E-008	5.38879E-008	-2.37000E-001	3.76539E-004	6	..........a	-327.68
	70	7.1	-1.84908E-001	-2.34848E-001	-2.09878E-001	1.03462E-008	-4.32229E-008	5.35691E-008	-2.35000E-001	3.74539E-004	6	..........a	-327.68
	71	7.2	-1.82910E-001	-2.32884E-001	-2.07897E-001	1.07076E-008	-4.22925E-008	5.30001E-008	-2.33000E-001	3.64706E-004	6	..........a	-327.68
	72	7.3	-1.80821E-001	-2.30902E-001	-2.05862E-001	1.10867E-008	-4.15177E-008	5.26044E-008	-2.31000E-001	3.68539E-004	6	..........a	-327.68
	73	7.4	-1.78793E-001	-2.28807E-001	-2.03800E-001	1.15551E-008	-4.07339E-008	5.22890E-008	-2.29000E-001	3.64873E-004	6	..........a	-327.68
	74	7.5	-1.76866E-001	-2.26839E-001	-2.01852E-001	1.17301E-008	-3.99438E-008	5.16739E-008	-2.27000E-001	3.80373E-004	6	..........a	-327.68
	75	7.6	-1.74903E-001	-2.24905E-001	-1.99904E-001	1.21508E-008	-3.89964E-008	5.11472E-008	-2.25000E-001	3.68039E-004	6	..........a	-327.68
	76	7.7	-1.72870E-001	-2.22910E-001	-1.97890E-001	1.27082E-008	-3.84073E-008	5.11155E-008	-2.23000E-001	3.60873E-004	6	..........a	-327.68
	77	7.8	-1.70853E-001	-2.20892E-001	-1.95872E-001	1.30779E-008	-3.75065E-008	5.05844E-008	-2.21000E-001	3.69206E-004	6	..........a	-327.68
	78	7.9	-1.68897E-001	-2.18892E-001	-1.93895E-001	1.35863E-008	-3.68688E-008	5.04551E-008	-2.19000E-001	3.67373E-004	6	..........a	-327.68
	79	8	-1.66914E-001	-2.16906E-001	-1.91910E-001	1.39134E-008	-3.62787E-008	5.01921E-008	-2.17000E-001	3.68539E-004	6	..........a	-327.68
	80	8.1	-1.64727E-001	-2.14955E-001	-1.89841E-001	1.42207E-008	-3.56359E-008	4.98567E-008	-2.15000E-001	3.59039E-004	6	..........a	-327.68
	81	8.2	-1.62812E-001	-2.12885E-001	-1.87849E-001	1.46464E-008	-3.50139E-008	4.96603E-008	-2.13000E-001	3.57706E-004	6	..........a	-327.68
	82	8.3	-1.60920E-001	-2.10874E-001	-1.85897E-001	1.48155E-008	-3.44891E-008	4.93046E-008	-2.11000E-001	3.53706E-004	6	..........a	-327.68
	83	8.4	-1.58900E-001	-2.08893E-001	-1.83896E-001	1.51715E-008	-3.37490E-008	4.89206E-008	-2.09000E-001	3.65873E-004	6	..........a	-327.68
	84	8.5	-1.56836E-001	-2.06927E-001	-1.81881E-001	1.54489E-008	-3.31943E-008	4.86432E-008	-2.07000E-001	3.61206E-004	6	..........a	-327.68
	85	8.6	-1.54808E-001	-2.04871E-001	-1.79839E-001	1.57119E-008	-3.27389E-008	4.84508E-008	-2.05000E-001	3.61206E-004	6	..........a	-327.68
	86	8.7	-1.52902E-001	-2.02841E-001	-1.77872E-001	1.60843E-008	-3.22422E-008	4.83265E-008	-2.03000E-001	3.54873E-004	6	..........a	-327.68
	87	8.8	-1.50929E-001	-2.00914E-001	-1.75921E-001	1.64813E-008	-3.17981E-008	4.82795E-008	-2.01000E-001	3.52206E-004	6	..........a	-327.68
	88	8.9	-1.48880E-001	-1.98922E-001	-1.73901E-001	1.65537E-008	-3.12431E-008	4.77967E-008	-1.99000E-001	3.56206E-004	6	..........a	-327.68
	89	9	-1.46854E-001	-1.96918E-001	-1.71886E-001	1.69774E-008	-3.06286E-008	4.76061E-008	-1.97000E-001	3.77039E-004	6	..........a	-327.68
	90	9.1	-1.44901E-001	-1.94881E-001	-1.69891E-001	1.72108E-008	-3.02079E-008	4.74187E-008	-1.95000E-001	3.61039E-004	6	..........a	-327.68
	91	9.2	-1.42921E-001	-1.92910E-001	-1.67915E-001	1.74921E-008	-2.97609E-008	4.72530E-008	-1.93000E-001	3.63206E-004	6	..........a	-327.68
	92	9.3	-1.40906E-001	-1.90937E-001	-1.65921E-001	1.77922E-008	-2.95425E-008	4.73347E-008	-1.91000E-001	3.62206E-004	6	..........a	-327.68
	93	9.4	-1.38803E-001	-1.88841E-001	-1.63822E-001	1.82182E-008	-2.88848E-008	4.71030E-008	-1.89000E-001	3.55873E-004	6	..........a	-327.68
	94	9.5	-1.36917E-001	-1.86851E-001	-1.61884E-001	1.84743E-008	-2.83287E-008	4.68030E-008	-1.87000E-001	3.51373E-004	6	..........a	-327.68
	95	9.6	-1.34927E-001	-1.84931E-001	-1.59929E-001	1.87533E-008	-2.81203E-008	4.68736E-008	-1.85000E-001	3.57873E-004	6	..........a	-327.68
	96	9.7	-1.32849E-001	-1.82914E-001	-1.57882E-001	1.90473E-008	-2.75279E-008	4.65753E-008	-1.83000E-001	3.71706E-004	6	..........a	-327.68
	97	9.8	-1.30821E-001	-1.80836E-001	-1.55828E-001	1.93644E-008	-2.71719E-008	4.65363E-008	-1.81000E-001	3.60039E-004	6	..........a	-327.68
	98	9.9	-1.28881E-001	-1.78826E-001	-1.53853E-001	1.96437E-008	-2.67061E-008	4.63499E-008	-1.79000E-001	3.53706E-004	6	..........a	-327.68
	99	10	-1.26929E-001	-1.76901E-001	-1.51915E-001	1.96414E-008	-2.63618E-008	4.60032E-008	-1.77000E-001	3.78873E-004	6	..........a	-327.68
	100	10.1	-1.24882E-001	-1.74902E-001	-1.49892E-001	2.00265E-008	-2.61371E-008	4.61635E-008	-1.75000E-001	3.78706E-004	6	..........a	-327.68