File: C-COM2/SWV_10Hz STD2 10  fgml 081020_#4.DTA
EXPLAIN
TAG	SQUARE_WAVE
TITLE	LABEL	Square Wave Voltammetry	Test Identifier
DATE	LABEL	8/10/2020	Date
TIME	LABEL	18:10:01	Time
NOTES	NOTES	1	Notes...
	 STD2, 10  fg/mL 08102
PSTAT	PSTAT	REF600-24079	Potentiostat
VINIT	QUANT	-3.50000E-001	Initial E (V)
VFINAL	QUANT	-1.50000E-001	Final E (V)
STEPSIZE	QUANT	2.00000E+000	Step Size (mV)
TIMERRES	QUANT	3.33340E-005	&Timer Resolution
FREQUENCY	QUANT	1.00000E+001	Frequency (Hz)
PULSESIZE	QUANT	2.50000E+001	Pulse Size E (mV)
PULSEON	QUANT	1.00000E-001	Pulse &Time (s)
NOISEREJECT	TOGGLE	F	Noise Rejection
AREA	QUANT	2.00000E-002	Sample Area (cm^2)
IMODE	SELECTOR	1	I/E Range Mode
IRANGE	QUANT	1.00000E-003	Max Current (mA)
EQDELAY	IQUANT	10	Equil. Time (s)
IRCOMP	SELECTOR	0	IRComp
PFCOR	QUANT	5.00000E+001	PF Corr. (ohm)
CYCLES	IQUANT	101	C&ycles (#)
ELECTRODETYPE	SELECTOR	0	Electrode Type
STRIPPING	TOGGLE	F	Used for Stripping
POLARITY	TOGGLE	F	Signal Polarity
LINEFREQ	IQUANT	60	Line Frequency (Hz)
INTPERIOD	QUANT	3.3334E-005	Integration Period (s)
SEQUENCER	TOGGLE	TRUE	Run as Sequence
PSTATMODEL	IQUANT	4	Pstat Model
PSTATSECTION	LABEL	REF600-24079	Pstat Section
PSTATSERIALNO	LABEL	24079	Pstat Serial Number
CTRLMODE	IQUANT	1	Control Mode
ELECTROMETER	IQUANT	0	RE=0 or CS=1
IESTAB	IQUANT	2	I/E Stability
CASPEED	IQUANT	6	Control Amp Speed
CONVENTION	IQUANT	1	Current Convention
ICHRANGE	IQUANT	2	Ich Range
ICHRANGEMODE	TOGGLE	F	Ich Auto Range
ICHOFFSETENABLE	TOGGLE	F	Ich Offset Enable
ICHOFFSET	QUANT	0	Ich Offset (V)
ICHFILTER	IQUANT	2	Ich Filter
VCHRANGE	IQUANT	2	Vch Range
VCHRANGEMODE	TOGGLE	F	Vch Auto Range
VCHOFFSETENABLE	TOGGLE	F	Vch Offset Enable
VCHOFFSET	QUANT	0	Vch Offset (V)
VCHFILTER	IQUANT	2	Vch Filter
ACHRANGE	IQUANT	2	Ach Range
ACHOFFSETENABLE	TOGGLE	F	Ach Offset Enable
ACHOFFSET	QUANT	0	Ach Offset (V)
ACHFILTER	IQUANT	1	Ach Filter
IERANGELOWERLIMIT	IQUANT	1	I/E Range Lower Limit
IERANGEMODE	TOGGLE	F	I/E AutoRange
IERANGE	IQUANT	6	I/E Range
POSFEEDENABLE	TOGGLE	F	Positive Feedback IR Comp
POSFEEDRESISTANCE	QUANT	0	Positive Feedback Resistance (ohm)
ACHSELECT	IQUANT	0	Ach Select
SENSECABLEID	IQUANT	13	Sense Cable ID
PWRCABLEID	IQUANT	13	Power Cable ID
DCCALDATE	LABEL	6/30/2020	DC Calibration Date
ACCALDATE	LABEL	6/30/2020	AC Calibration Date
THERMOSELECT	IQUANT	1	Thermo Select
FRAMEWORKVERSION	LABEL	7.8.2	Framework Version
INSTRUMENTVERSION	LABEL	4.40	Instrument Version
CURVE	TABLE	101
	Pt	T	Vfwd	Vrev	Vstep	Ifwd	Irev	Idif	Sig	Ach	IERange	Over	Temp
	#	s	V	V	V	A	A	A	V	V	#	bits	deg C
	0	0.1	-3.24889E-001	-3.74887E-001	-3.49888E-001	-8.75796E-008	-1.69880E-007	8.23008E-008	-3.75000E-001	3.60206E-004	6	..........a	-327.68
	1	0.2	-3.22858E-001	-3.72900E-001	-3.47879E-001	-7.30170E-008	-1.62720E-007	8.97031E-008	-3.73000E-001	3.72706E-004	6	..........a	-327.68
	2	0.3	-3.20881E-001	-3.70783E-001	-3.45832E-001	-6.90552E-008	-1.58454E-007	8.93984E-008	-3.71000E-001	3.62539E-004	6	..........a	-327.68
	3	0.4	-3.18871E-001	-3.68967E-001	-3.43919E-001	-6.66836E-008	-1.54905E-007	8.82219E-008	-3.69000E-001	3.62039E-004	6	..........a	-327.68
	4	0.5	-3.16814E-001	-3.66898E-001	-3.41856E-001	-6.45110E-008	-1.52119E-007	8.76085E-008	-3.67000E-001	3.67039E-004	6	..........a	-327.68
	5	0.6	-3.14853E-001	-3.64919E-001	-3.39886E-001	-6.25317E-008	-1.49249E-007	8.67174E-008	-3.65000E-001	3.65206E-004	6	..........a	-327.68
	6	0.7	-3.12897E-001	-3.62811E-001	-3.37854E-001	-6.07365E-008	-1.46692E-007	8.59559E-008	-3.63000E-001	3.71039E-004	6	..........a	-327.68
	7	0.8	-3.10853E-001	-3.60890E-001	-3.35871E-001	-5.89936E-008	-1.43912E-007	8.49181E-008	-3.61000E-001	3.72873E-004	6	..........a	-327.68
	8	0.9	-3.08855E-001	-3.58871E-001	-3.33863E-001	-5.71460E-008	-1.41263E-007	8.41167E-008	-3.59000E-001	3.66373E-004	6	..........a	-327.68
	9	1	-3.06835E-001	-3.56880E-001	-3.31858E-001	-5.52501E-008	-1.38738E-007	8.34880E-008	-3.57000E-001	3.72539E-004	6	..........a	-327.68
	10	1.1	-3.04910E-001	-3.54831E-001	-3.29871E-001	-5.36206E-008	-1.36008E-007	8.23878E-008	-3.55000E-001	3.48539E-004	6	..........a	-327.68
	11	1.2	-3.02894E-001	-3.52914E-001	-3.27904E-001	-5.19434E-008	-1.33474E-007	8.15310E-008	-3.53000E-001	3.66373E-004	6	..........a	-327.68
	12	1.3	-3.00894E-001	-3.50890E-001	-3.25892E-001	-5.02411E-008	-1.31155E-007	8.09143E-008	-3.51000E-001	3.57206E-004	6	..........a	-327.68
	13	1.4	-2.98864E-001	-3.48903E-001	-3.23883E-001	-4.86613E-008	-1.28668E-007	8.00065E-008	-3.49000E-001	3.60206E-004	6	..........a	-327.68
	14	1.5	-2.96900E-001	-3.46880E-001	-3.21890E-001	-4.71668E-008	-1.26189E-007	7.90224E-008	-3.47000E-001	3.73206E-004	6	..........a	-327.68
	15	1.6	-2.94882E-001	-3.45002E-001	-3.19942E-001	-4.55255E-008	-1.24034E-007	7.85083E-008	-3.45000E-001	3.70706E-004	6	..........a	-327.68
	16	1.7	-2.92741E-001	-3.42841E-001	-3.17791E-001	-4.39547E-008	-1.21926E-007	7.79709E-008	-3.43000E-001	3.71706E-004	6	..........a	-327.68
	17	1.8	-2.90790E-001	-3.40923E-001	-3.15857E-001	-4.24015E-008	-1.19513E-007	7.71118E-008	-3.41000E-001	3.64873E-004	6	..........a	-327.68
	18	1.9	-2.88931E-001	-3.38823E-001	-3.13877E-001	-4.09090E-008	-1.17421E-007	7.65117E-008	-3.39000E-001	3.55039E-004	6	..........a	-327.68
	19	2	-2.86872E-001	-3.36891E-001	-3.11881E-001	-3.93528E-008	-1.15342E-007	7.59893E-008	-3.37000E-001	3.60039E-004	6	..........a	-327.68
	20	2.1	-2.84822E-001	-3.34879E-001	-3.09850E-001	-3.79489E-008	-1.13105E-007	7.51562E-008	-3.35000E-001	3.60873E-004	6	..........a	-327.68
	21	2.2	-2.82803E-001	-3.32854E-001	-3.07829E-001	-3.64024E-008	-1.11066E-007	7.46635E-008	-3.33000E-001	3.59206E-004	6	..........a	-327.68
	22	2.3	-2.80935E-001	-3.30810E-001	-3.05873E-001	-3.48262E-008	-1.09350E-007	7.45241E-008	-3.31000E-001	3.60373E-004	6	..........a	-327.68
	23	2.4	-2.78877E-001	-3.28894E-001	-3.03886E-001	-3.33803E-008	-1.07572E-007	7.41918E-008	-3.29000E-001	3.60539E-004	6	..........a	-327.68
	24	2.5	-2.76884E-001	-3.26881E-001	-3.01882E-001	-3.16838E-008	-1.05490E-007	7.38067E-008	-3.27000E-001	3.56206E-004	6	..........a	-327.68
	25	2.6	-2.74846E-001	-3.24883E-001	-2.99864E-001	-3.05673E-008	-1.03514E-007	7.29466E-008	-3.25000E-001	3.63873E-004	6	..........a	-327.68
	26	2.7	-2.72886E-001	-3.22868E-001	-2.97877E-001	-2.90654E-008	-1.02035E-007	7.29693E-008	-3.23000E-001	3.47873E-004	6	..........a	-327.68
	27	2.8	-2.70889E-001	-3.20893E-001	-2.95891E-001	-2.79193E-008	-1.00173E-007	7.22542E-008	-3.21000E-001	3.60706E-004	6	..........a	-327.68
	28	2.9	-2.68895E-001	-3.18871E-001	-2.93883E-001	-2.62944E-008	-9.85900E-008	7.22955E-008	-3.19000E-001	3.61373E-004	6	..........a	-327.68
	29	3	-2.66792E-001	-3.16845E-001	-2.91818E-001	-2.49463E-008	-9.66924E-008	7.17461E-008	-3.17000E-001	3.60539E-004	6	..........a	-327.68
	30	3.1	-2.64930E-001	-3.14883E-001	-2.89906E-001	-2.34837E-008	-9.52435E-008	7.17598E-008	-3.15000E-001	3.58539E-004	6	..........a	-327.68
	31	3.2	-2.62905E-001	-3.12938E-001	-2.87921E-001	-2.23789E-008	-9.35463E-008	7.11674E-008	-3.13000E-001	3.67873E-004	6	..........a	-327.68
	32	3.3	-2.60824E-001	-3.10893E-001	-2.85858E-001	-2.11044E-008	-9.20281E-008	7.09237E-008	-3.11000E-001	3.68539E-004	6	..........a	-327.68
	33	3.4	-2.58818E-001	-3.08795E-001	-2.83807E-001	-1.98013E-008	-9.06839E-008	7.08827E-008	-3.09000E-001	3.61373E-004	6	..........a	-327.68
	34	3.5	-2.56886E-001	-3.06835E-001	-2.81860E-001	-1.86458E-008	-8.90817E-008	7.04360E-008	-3.07000E-001	3.40039E-004	6	..........a	-327.68
	35	3.6	-2.54899E-001	-3.04911E-001	-2.79905E-001	-1.75020E-008	-8.76749E-008	7.01729E-008	-3.05000E-001	3.55539E-004	6	..........a	-327.68
	36	3.7	-2.52854E-001	-3.02907E-001	-2.77881E-001	-1.62638E-008	-8.64431E-008	7.01793E-008	-3.03000E-001	3.52206E-004	6	..........a	-327.68
	37	3.8	-2.50839E-001	-3.00911E-001	-2.75875E-001	-1.52670E-008	-8.49589E-008	6.96919E-008	-3.01000E-001	3.41206E-004	6	..........a	-327.68
	38	3.9	-2.48900E-001	-2.98867E-001	-2.73883E-001	-1.41506E-008	-8.37217E-008	6.95712E-008	-2.99000E-001	3.51373E-004	6	..........a	-327.68
	39	4	-2.46890E-001	-2.96908E-001	-2.71899E-001	-1.32348E-008	-8.23759E-008	6.91411E-008	-2.97000E-001	3.63873E-004	6	..........a	-327.68
	40	4.1	-2.44884E-001	-2.94874E-001	-2.69879E-001	-1.19649E-008	-8.09887E-008	6.90238E-008	-2.95000E-001	3.53706E-004	6	..........a	-327.68
	41	4.2	-2.42776E-001	-2.92799E-001	-2.67788E-001	-1.11008E-008	-7.97476E-008	6.86467E-008	-2.93000E-001	3.53039E-004	6	..........a	-327.68
	42	4.3	-2.40939E-001	-2.90803E-001	-2.65871E-001	-1.02254E-008	-7.83517E-008	6.81263E-008	-2.91000E-001	3.58039E-004	6	..........a	-327.68
	43	4.4	-2.38903E-001	-2.88939E-001	-2.63921E-001	-9.20992E-009	-7.73926E-008	6.81827E-008	-2.89000E-001	3.54706E-004	6	..........a	-327.68
	44	4.5	-2.36863E-001	-2.86878E-001	-2.61871E-001	-8.24880E-009	-7.62308E-008	6.79820E-008	-2.87000E-001	3.46539E-004	6	..........a	-327.68
	45	4.6	-2.34812E-001	-2.84870E-001	-2.59841E-001	-7.62639E-009	-7.49810E-008	6.73546E-008	-2.85000E-001	3.66706E-004	6	..........a	-327.68
	46	4.7	-2.32867E-001	-2.82808E-001	-2.57837E-001	-6.73227E-009	-7.39292E-008	6.71969E-008	-2.83000E-001	3.76873E-004	6	..........a	-327.68
	47	4.8	-2.30860E-001	-2.80937E-001	-2.55898E-001	-6.10753E-009	-7.27107E-008	6.66031E-008	-2.81000E-001	3.59706E-004	6	..........a	-327.68
	48	4.9	-2.28826E-001	-2.78874E-001	-2.53850E-001	-5.38477E-009	-7.14458E-008	6.60611E-008	-2.79000E-001	3.64373E-004	6	..........a	-327.68
	49	5	-2.26812E-001	-2.76890E-001	-2.51851E-001	-4.49966E-009	-7.03544E-008	6.58547E-008	-2.77000E-001	3.60373E-004	6	..........a	-327.68
	50	5.1	-2.24875E-001	-2.74857E-001	-2.49866E-001	-3.78290E-009	-6.90379E-008	6.52550E-008	-2.75000E-001	3.62539E-004	6	..........a	-327.68
	51	5.2	-2.22876E-001	-2.72886E-001	-2.47881E-001	-3.08814E-009	-6.79044E-008	6.48162E-008	-2.73000E-001	3.65373E-004	6	..........a	-327.68
	52	5.3	-2.20871E-001	-2.70880E-001	-2.45875E-001	-2.43906E-009	-6.68056E-008	6.43665E-008	-2.71000E-001	3.64039E-004	6	..........a	-327.68
	53	5.4	-2.18870E-001	-2.68880E-001	-2.43875E-001	-1.89632E-009	-6.53601E-008	6.34637E-008	-2.69000E-001	3.67539E-004	6	..........a	-327.68
	54	5.5	-2.16961E-001	-2.66779E-001	-2.41870E-001	-1.11689E-009	-6.44643E-008	6.33474E-008	-2.67000E-001	3.65873E-004	6	..........a	-327.68
	55	5.6	-2.14867E-001	-2.64963E-001	-2.39915E-001	-6.98839E-010	-6.34985E-008	6.27996E-008	-2.65000E-001	3.52206E-004	6	..........a	-327.68
	56	5.7	-2.12868E-001	-2.62863E-001	-2.37865E-001	5.02564E-011	-6.20216E-008	6.20719E-008	-2.63000E-001	3.63873E-004	6	..........a	-327.68
	57	5.8	-2.10835E-001	-2.60874E-001	-2.35854E-001	6.18329E-010	-6.10999E-008	6.17182E-008	-2.61000E-001	3.61039E-004	6	..........a	-327.68
	58	5.9	-2.08884E-001	-2.58807E-001	-2.33846E-001	1.09272E-009	-5.99410E-008	6.10338E-008	-2.59000E-001	3.65539E-004	6	..........a	-327.68
	59	6	-2.06877E-001	-2.56865E-001	-2.31871E-001	1.71047E-009	-5.86549E-008	6.03653E-008	-2.57000E-001	3.50373E-004	6	..........a	-327.68
	60	6.1	-2.04824E-001	-2.54885E-001	-2.29855E-001	2.13986E-009	-5.76761E-008	5.98159E-008	-2.55000E-001	3.64539E-004	6	..........a	-327.68
	61	6.2	-2.02812E-001	-2.52891E-001	-2.27852E-001	2.35955E-009	-5.66946E-008	5.90542E-008	-2.53000E-001	3.56539E-004	6	..........a	-327.68
	62	6.3	-2.00897E-001	-2.50852E-001	-2.25875E-001	2.82894E-009	-5.56665E-008	5.84954E-008	-2.51000E-001	3.46206E-004	6	..........a	-327.68
	63	6.4	-1.98888E-001	-2.48888E-001	-2.23888E-001	3.33367E-009	-5.44830E-008	5.78167E-008	-2.49000E-001	3.44039E-004	6	..........a	-327.68
	64	6.5	-1.96889E-001	-2.46867E-001	-2.21878E-001	3.87408E-009	-5.35332E-008	5.74073E-008	-2.47000E-001	3.47373E-004	6	..........a	-327.68
	65	6.6	-1.94852E-001	-2.44869E-001	-2.19860E-001	4.26679E-009	-5.24138E-008	5.66805E-008	-2.45000E-001	3.55873E-004	6	..........a	-327.68
	66	6.7	-1.92912E-001	-2.42785E-001	-2.17849E-001	4.83720E-009	-5.15690E-008	5.64062E-008	-2.43000E-001	3.46873E-004	6	..........a	-327.68
	67	6.8	-1.90884E-001	-2.40963E-001	-2.15924E-001	5.33260E-009	-5.07889E-008	5.61215E-008	-2.41000E-001	3.43206E-004	6	..........a	-327.68
	68	6.9	-1.88788E-001	-2.38869E-001	-2.13828E-001	5.76965E-009	-4.95964E-008	5.53660E-008	-2.39000E-001	3.49539E-004	6	..........a	-327.68
	69	7	-1.86813E-001	-2.36897E-001	-2.11855E-001	6.13636E-009	-4.88076E-008	5.49440E-008	-2.37000E-001	3.34873E-004	6	..........a	-327.68
	70	7.1	-1.84914E-001	-2.34810E-001	-2.09862E-001	6.56109E-009	-4.78722E-008	5.44333E-008	-2.35000E-001	3.37039E-004	6	..........a	-327.68
	71	7.2	-1.82864E-001	-2.32896E-001	-2.07880E-001	7.03681E-009	-4.71367E-008	5.41736E-008	-2.33000E-001	3.31706E-004	6	..........a	-327.68
	72	7.3	-1.80790E-001	-2.30862E-001	-2.05826E-001	7.31585E-009	-4.61233E-008	5.34391E-008	-2.31000E-001	3.42039E-004	6	..........a	-327.68
	73	7.4	-1.78799E-001	-2.28868E-001	-2.03833E-001	8.11595E-009	-4.54779E-008	5.35938E-008	-2.29000E-001	3.34706E-004	6	..........a	-327.68
	74	7.5	-1.76868E-001	-2.26820E-001	-2.01844E-001	8.52534E-009	-4.47814E-008	5.33068E-008	-2.27000E-001	3.49539E-004	6	..........a	-327.68
	75	7.6	-1.74884E-001	-2.24900E-001	-1.99892E-001	8.87571E-009	-4.39710E-008	5.28467E-008	-2.25000E-001	3.36539E-004	6	..........a	-327.68
	76	7.7	-1.72871E-001	-2.22878E-001	-1.97874E-001	9.29677E-009	-4.31032E-008	5.24000E-008	-2.23000E-001	3.22206E-004	6	..........a	-327.68
	77	7.8	-1.70822E-001	-2.20887E-001	-1.95855E-001	9.81283E-009	-4.25065E-008	5.23193E-008	-2.21000E-001	3.23373E-004	6	..........a	-327.68
	78	7.9	-1.68870E-001	-2.18875E-001	-1.93872E-001	1.00892E-008	-4.18467E-008	5.19359E-008	-2.19000E-001	3.38539E-004	6	..........a	-327.68
	79	8	-1.66909E-001	-2.16981E-001	-1.91945E-001	1.03359E-008	-4.10846E-008	5.14205E-008	-2.17000E-001	3.29706E-004	6	..........a	-327.68
	80	8.1	-1.64714E-001	-2.14858E-001	-1.89786E-001	1.08000E-008	-4.05769E-008	5.13769E-008	-2.15000E-001	3.34539E-004	6	..........a	-327.68
	81	8.2	-1.62779E-001	-2.12789E-001	-1.87784E-001	1.12360E-008	-3.97001E-008	5.09362E-008	-2.13000E-001	3.28039E-004	6	..........a	-327.68
	82	8.3	-1.60914E-001	-2.10830E-001	-1.85872E-001	1.15414E-008	-3.90794E-008	5.06208E-008	-2.11000E-001	3.24539E-004	6	..........a	-327.68
	83	8.4	-1.58880E-001	-2.08864E-001	-1.83872E-001	1.20484E-008	-3.84023E-008	5.04508E-008	-2.09000E-001	3.21706E-004	6	..........a	-327.68
	84	8.5	-1.56795E-001	-2.06888E-001	-1.81841E-001	1.24685E-008	-3.78576E-008	5.03261E-008	-2.07000E-001	3.27039E-004	6	..........a	-327.68
	85	8.6	-1.54806E-001	-2.04813E-001	-1.79809E-001	1.26805E-008	-3.73895E-008	5.00700E-008	-2.05000E-001	3.25206E-004	6	..........a	-327.68
	86	8.7	-1.52903E-001	-2.02823E-001	-1.77863E-001	1.31963E-008	-3.69388E-008	5.01350E-008	-2.03000E-001	3.15539E-004	6	..........a	-327.68
	87	8.8	-1.50879E-001	-2.00902E-001	-1.75890E-001	1.34990E-008	-3.61227E-008	4.96216E-008	-2.01000E-001	3.44373E-004	6	..........a	-327.68
	88	8.9	-1.48838E-001	-1.98904E-001	-1.73871E-001	1.37990E-008	-3.56203E-008	4.94193E-008	-1.99000E-001	3.20539E-004	6	..........a	-327.68
	89	9	-1.46836E-001	-1.96893E-001	-1.71865E-001	1.41120E-008	-3.51356E-008	4.92476E-008	-1.97000E-001	3.21373E-004	6	..........a	-327.68
	90	9.1	-1.44895E-001	-1.94864E-001	-1.69880E-001	1.45904E-008	-3.46422E-008	4.92326E-008	-1.95000E-001	3.19373E-004	6	..........a	-327.68
	91	9.2	-1.42905E-001	-1.92898E-001	-1.67901E-001	1.50202E-008	-3.39591E-008	4.89792E-008	-1.93000E-001	3.31373E-004	6	..........a	-327.68
	92	9.3	-1.40880E-001	-1.90884E-001	-1.65882E-001	1.54949E-008	-3.35614E-008	4.90562E-008	-1.91000E-001	3.22539E-004	6	..........a	-327.68
	93	9.4	-1.38762E-001	-1.88801E-001	-1.63782E-001	1.56852E-008	-3.30936E-008	4.87789E-008	-1.89000E-001	3.24873E-004	6	..........a	-327.68
	94	9.5	-1.36913E-001	-1.86824E-001	-1.61868E-001	1.60223E-008	-3.26129E-008	4.86352E-008	-1.87000E-001	3.11206E-004	6	..........a	-327.68
	95	9.6	-1.34909E-001	-1.84926E-001	-1.59918E-001	1.63843E-008	-3.20982E-008	4.84825E-008	-1.85000E-001	3.33373E-004	6	..........a	-327.68
	96	9.7	-1.32800E-001	-1.82875E-001	-1.57837E-001	1.66880E-008	-3.18151E-008	4.85032E-008	-1.83000E-001	3.40373E-004	6	..........a	-327.68
	97	9.8	-1.30796E-001	-1.80848E-001	-1.55822E-001	1.69691E-008	-3.13801E-008	4.83492E-008	-1.81000E-001	3.35373E-004	6	..........a	-327.68
	98	9.9	-1.28857E-001	-1.78816E-001	-1.53837E-001	1.73148E-008	-3.09884E-008	4.83031E-008	-1.79000E-001	3.20206E-004	6	..........a	-327.68
	99	10	-1.26894E-001	-1.76889E-001	-1.51892E-001	1.77352E-008	-3.06560E-008	4.83912E-008	-1.77000E-001	3.34206E-004	6	..........a	-327.68
	100	10.1	-1.24852E-001	-1.74887E-001	-1.49869E-001	1.79222E-008	-3.00652E-008	4.79874E-008	-1.75000E-001	3.38873E-004	6	..........a	-327.68