File: C-COM2/SWV_10Hz STD2 50  fgml 081020_#1.DTA
EXPLAIN
TAG	SQUARE_WAVE
TITLE	LABEL	Square Wave Voltammetry	Test Identifier
DATE	LABEL	8/10/2020	Date
TIME	LABEL	19:26:39	Time
NOTES	NOTES	1	Notes...
	 STD2 50  fg/mL 08102
PSTAT	PSTAT	REF600-24079	Potentiostat
VINIT	QUANT	-3.50000E-001	Initial E (V)
VFINAL	QUANT	-1.50000E-001	Final E (V)
STEPSIZE	QUANT	2.00000E+000	Step Size (mV)
TIMERRES	QUANT	3.33340E-005	&Timer Resolution
FREQUENCY	QUANT	1.00000E+001	Frequency (Hz)
PULSESIZE	QUANT	2.50000E+001	Pulse Size E (mV)
PULSEON	QUANT	1.00000E-001	Pulse &Time (s)
NOISEREJECT	TOGGLE	F	Noise Rejection
AREA	QUANT	2.00000E-002	Sample Area (cm^2)
IMODE	SELECTOR	1	I/E Range Mode
IRANGE	QUANT	1.00000E-003	Max Current (mA)
EQDELAY	IQUANT	10	Equil. Time (s)
IRCOMP	SELECTOR	0	IRComp
PFCOR	QUANT	5.00000E+001	PF Corr. (ohm)
CYCLES	IQUANT	101	C&ycles (#)
ELECTRODETYPE	SELECTOR	0	Electrode Type
STRIPPING	TOGGLE	F	Used for Stripping
POLARITY	TOGGLE	F	Signal Polarity
LINEFREQ	IQUANT	60	Line Frequency (Hz)
INTPERIOD	QUANT	3.3334E-005	Integration Period (s)
SEQUENCER	TOGGLE	TRUE	Run as Sequence
PSTATMODEL	IQUANT	4	Pstat Model
PSTATSECTION	LABEL	REF600-24079	Pstat Section
PSTATSERIALNO	LABEL	24079	Pstat Serial Number
CTRLMODE	IQUANT	1	Control Mode
ELECTROMETER	IQUANT	0	RE=0 or CS=1
IESTAB	IQUANT	2	I/E Stability
CASPEED	IQUANT	6	Control Amp Speed
CONVENTION	IQUANT	1	Current Convention
ICHRANGE	IQUANT	2	Ich Range
ICHRANGEMODE	TOGGLE	F	Ich Auto Range
ICHOFFSETENABLE	TOGGLE	F	Ich Offset Enable
ICHOFFSET	QUANT	0	Ich Offset (V)
ICHFILTER	IQUANT	2	Ich Filter
VCHRANGE	IQUANT	2	Vch Range
VCHRANGEMODE	TOGGLE	F	Vch Auto Range
VCHOFFSETENABLE	TOGGLE	F	Vch Offset Enable
VCHOFFSET	QUANT	0	Vch Offset (V)
VCHFILTER	IQUANT	2	Vch Filter
ACHRANGE	IQUANT	2	Ach Range
ACHOFFSETENABLE	TOGGLE	F	Ach Offset Enable
ACHOFFSET	QUANT	0	Ach Offset (V)
ACHFILTER	IQUANT	1	Ach Filter
IERANGELOWERLIMIT	IQUANT	1	I/E Range Lower Limit
IERANGEMODE	TOGGLE	F	I/E AutoRange
IERANGE	IQUANT	6	I/E Range
POSFEEDENABLE	TOGGLE	F	Positive Feedback IR Comp
POSFEEDRESISTANCE	QUANT	0	Positive Feedback Resistance (ohm)
ACHSELECT	IQUANT	0	Ach Select
SENSECABLEID	IQUANT	13	Sense Cable ID
PWRCABLEID	IQUANT	13	Power Cable ID
DCCALDATE	LABEL	6/30/2020	DC Calibration Date
ACCALDATE	LABEL	6/30/2020	AC Calibration Date
THERMOSELECT	IQUANT	1	Thermo Select
FRAMEWORKVERSION	LABEL	7.8.2	Framework Version
INSTRUMENTVERSION	LABEL	4.40	Instrument Version
CURVE	TABLE	101
	Pt	T	Vfwd	Vrev	Vstep	Ifwd	Irev	Idif	Sig	Ach	IERange	Over	Temp
	#	s	V	V	V	A	A	A	V	V	#	bits	deg C
	0	0.1	-3.24874E-001	-3.74889E-001	-3.49882E-001	-1.48200E-007	-2.85553E-007	1.37352E-007	-3.75000E-001	3.56539E-004	6	..........a	-327.68
	1	0.2	-3.22863E-001	-3.72881E-001	-3.47872E-001	-1.32686E-007	-2.74597E-007	1.41910E-007	-3.73000E-001	3.64706E-004	6	..........a	-327.68
	2	0.3	-3.20880E-001	-3.70806E-001	-3.45843E-001	-1.27034E-007	-2.66782E-007	1.39748E-007	-3.71000E-001	3.70206E-004	6	..........a	-327.68
	3	0.4	-3.18940E-001	-3.68920E-001	-3.43930E-001	-1.22887E-007	-2.59148E-007	1.36260E-007	-3.69000E-001	3.67873E-004	6	..........a	-327.68
	4	0.5	-3.16758E-001	-3.66926E-001	-3.41842E-001	-1.18753E-007	-2.52509E-007	1.33756E-007	-3.67000E-001	3.59706E-004	6	..........a	-327.68
	5	0.6	-3.14899E-001	-3.64838E-001	-3.39869E-001	-1.14792E-007	-2.46129E-007	1.31337E-007	-3.65000E-001	3.65539E-004	6	..........a	-327.68
	6	0.7	-3.12890E-001	-3.62815E-001	-3.37853E-001	-1.10948E-007	-2.39736E-007	1.28788E-007	-3.63000E-001	3.67706E-004	6	..........a	-327.68
	7	0.8	-3.10888E-001	-3.60874E-001	-3.35881E-001	-1.07471E-007	-2.33764E-007	1.26293E-007	-3.61000E-001	3.51873E-004	6	..........a	-327.68
	8	0.9	-3.08846E-001	-3.58887E-001	-3.33866E-001	-1.04013E-007	-2.27966E-007	1.23954E-007	-3.59000E-001	3.56873E-004	6	..........a	-327.68
	9	1	-3.06839E-001	-3.56848E-001	-3.31843E-001	-1.00434E-007	-2.22312E-007	1.21878E-007	-3.57000E-001	3.61706E-004	6	..........a	-327.68
	10	1.1	-3.04887E-001	-3.54838E-001	-3.29863E-001	-9.73738E-008	-2.16795E-007	1.19421E-007	-3.55000E-001	3.56873E-004	6	..........a	-327.68
	11	1.2	-3.02905E-001	-3.52902E-001	-3.27904E-001	-9.40157E-008	-2.11610E-007	1.17594E-007	-3.53000E-001	3.57039E-004	6	..........a	-327.68
	12	1.3	-3.00879E-001	-3.50878E-001	-3.25878E-001	-9.10513E-008	-2.06554E-007	1.15502E-007	-3.51000E-001	3.60873E-004	6	..........a	-327.68
	13	1.4	-2.98863E-001	-3.48881E-001	-3.23872E-001	-8.79603E-008	-2.01896E-007	1.13936E-007	-3.49000E-001	3.58206E-004	6	..........a	-327.68
	14	1.5	-2.96881E-001	-3.46873E-001	-3.21877E-001	-8.49962E-008	-1.97039E-007	1.12043E-007	-3.47000E-001	3.46873E-004	6	..........a	-327.68
	15	1.6	-2.94871E-001	-3.44861E-001	-3.19866E-001	-8.21029E-008	-1.92292E-007	1.10189E-007	-3.45000E-001	3.50373E-004	6	..........a	-327.68
	16	1.7	-2.92758E-001	-3.42915E-001	-3.17837E-001	-7.90711E-008	-1.87830E-007	1.08759E-007	-3.43000E-001	3.56706E-004	6	..........a	-327.68
	17	1.8	-2.90824E-001	-3.40881E-001	-3.15853E-001	-7.62585E-008	-1.83548E-007	1.07289E-007	-3.41000E-001	3.44373E-004	6	..........a	-327.68
	18	1.9	-2.88916E-001	-3.38852E-001	-3.13884E-001	-7.35181E-008	-1.79120E-007	1.05601E-007	-3.39000E-001	3.66706E-004	6	..........a	-327.68
	19	2	-2.86887E-001	-3.36892E-001	-3.11889E-001	-7.09284E-008	-1.75385E-007	1.04456E-007	-3.37000E-001	3.64039E-004	6	..........a	-327.68
	20	2.1	-2.84813E-001	-3.34895E-001	-3.09854E-001	-6.82111E-008	-1.71233E-007	1.03022E-007	-3.35000E-001	3.50373E-004	6	..........a	-327.68
	21	2.2	-2.82838E-001	-3.32786E-001	-3.07812E-001	-6.56314E-008	-1.67284E-007	1.01653E-007	-3.33000E-001	3.50873E-004	6	..........a	-327.68
	22	2.3	-2.80923E-001	-3.30838E-001	-3.05881E-001	-6.31525E-008	-1.63383E-007	1.00230E-007	-3.31000E-001	3.56373E-004	6	..........a	-327.68
	23	2.4	-2.78876E-001	-3.28887E-001	-3.03881E-001	-6.07778E-008	-1.59752E-007	9.89746E-008	-3.29000E-001	3.57873E-004	6	..........a	-327.68
	24	2.5	-2.76871E-001	-3.26886E-001	-3.01879E-001	-5.83905E-008	-1.56307E-007	9.79168E-008	-3.27000E-001	3.66539E-004	6	..........a	-327.68
	25	2.6	-2.74855E-001	-3.24888E-001	-2.99871E-001	-5.59605E-008	-1.52921E-007	9.69607E-008	-3.25000E-001	3.47373E-004	6	..........a	-327.68
	26	2.7	-2.72878E-001	-3.22875E-001	-2.97876E-001	-5.34892E-008	-1.49590E-007	9.61012E-008	-3.23000E-001	3.55039E-004	6	..........a	-327.68
	27	2.8	-2.70864E-001	-3.20901E-001	-2.95882E-001	-5.11923E-008	-1.46378E-007	9.51861E-008	-3.21000E-001	3.39706E-004	6	..........a	-327.68
	28	2.9	-2.68875E-001	-3.18922E-001	-2.93898E-001	-4.91197E-008	-1.43368E-007	9.42486E-008	-3.19000E-001	3.50539E-004	6	..........a	-327.68
	29	3	-2.66813E-001	-3.16691E-001	-2.91752E-001	-4.70241E-008	-1.40265E-007	9.32412E-008	-3.17000E-001	3.41706E-004	6	..........a	-327.68
	30	3.1	-2.64905E-001	-3.14873E-001	-2.89889E-001	-4.49091E-008	-1.37150E-007	9.22411E-008	-3.15000E-001	3.45039E-004	6	..........a	-327.68
	31	3.2	-2.62891E-001	-3.12905E-001	-2.87898E-001	-4.26798E-008	-1.34109E-007	9.14296E-008	-3.13000E-001	3.55873E-004	6	..........a	-327.68
	32	3.3	-2.60818E-001	-3.10892E-001	-2.85855E-001	-4.06596E-008	-1.31438E-007	9.07789E-008	-3.11000E-001	3.58539E-004	6	..........a	-327.68
	33	3.4	-2.58815E-001	-3.08856E-001	-2.83835E-001	-3.85280E-008	-1.28613E-007	9.00848E-008	-3.09000E-001	3.54706E-004	6	..........a	-327.68
	34	3.5	-2.56874E-001	-3.06858E-001	-2.81866E-001	-3.68634E-008	-1.26225E-007	8.93614E-008	-3.07000E-001	3.62373E-004	6	..........a	-327.68
	35	3.6	-2.54909E-001	-3.04912E-001	-2.79911E-001	-3.49849E-008	-1.23587E-007	8.86023E-008	-3.05000E-001	3.63539E-004	6	..........a	-327.68
	36	3.7	-2.52826E-001	-3.02908E-001	-2.77867E-001	-3.30833E-008	-1.21020E-007	8.79372E-008	-3.03000E-001	3.69039E-004	6	..........a	-327.68
	37	3.8	-2.50845E-001	-3.00892E-001	-2.75869E-001	-3.16464E-008	-1.18814E-007	8.71674E-008	-3.01000E-001	3.67873E-004	6	..........a	-327.68
	38	3.9	-2.48887E-001	-2.98867E-001	-2.73877E-001	-2.99159E-008	-1.16638E-007	8.67220E-008	-2.99000E-001	3.64039E-004	6	..........a	-327.68
	39	4	-2.46866E-001	-2.96893E-001	-2.71879E-001	-2.82610E-008	-1.14074E-007	8.58129E-008	-2.97000E-001	3.66039E-004	6	..........a	-327.68
	40	4.1	-2.44881E-001	-2.94870E-001	-2.69875E-001	-2.64531E-008	-1.11838E-007	8.53849E-008	-2.95000E-001	3.73873E-004	6	..........a	-327.68
	41	4.2	-2.42801E-001	-2.92768E-001	-2.67784E-001	-2.49459E-008	-1.09715E-007	8.47694E-008	-2.93000E-001	3.68206E-004	6	..........a	-327.68
	42	4.3	-2.40892E-001	-2.90827E-001	-2.65859E-001	-2.35504E-008	-1.07687E-007	8.41370E-008	-2.91000E-001	3.73706E-004	6	..........a	-327.68
	43	4.4	-2.38919E-001	-2.88917E-001	-2.63918E-001	-2.22622E-008	-1.05508E-007	8.32459E-008	-2.89000E-001	3.72039E-004	6	..........a	-327.68
	44	4.5	-2.36853E-001	-2.86894E-001	-2.61873E-001	-2.08504E-008	-1.03376E-007	8.25255E-008	-2.87000E-001	3.50539E-004	6	..........a	-327.68
	45	4.6	-2.34832E-001	-2.84839E-001	-2.59836E-001	-1.97736E-008	-1.01529E-007	8.17557E-008	-2.85000E-001	3.52706E-004	6	..........a	-327.68
	46	4.7	-2.32872E-001	-2.82823E-001	-2.57847E-001	-1.84884E-008	-9.96184E-008	8.11300E-008	-2.83000E-001	3.58873E-004	6	..........a	-327.68
	47	4.8	-2.30880E-001	-2.80916E-001	-2.55898E-001	-1.74066E-008	-9.77985E-008	8.03919E-008	-2.81000E-001	3.53039E-004	6	..........a	-327.68
	48	4.9	-2.28781E-001	-2.78901E-001	-2.53841E-001	-1.61251E-008	-9.55282E-008	7.94031E-008	-2.79000E-001	3.53373E-004	6	..........a	-327.68
	49	5	-2.26840E-001	-2.76897E-001	-2.51868E-001	-1.53664E-008	-9.37177E-008	7.83513E-008	-2.77000E-001	3.60039E-004	6	..........a	-327.68
	50	5.1	-2.24896E-001	-2.74859E-001	-2.49877E-001	-1.43052E-008	-9.19158E-008	7.76105E-008	-2.75000E-001	3.49539E-004	6	..........a	-327.68
	51	5.2	-2.22883E-001	-2.72894E-001	-2.47889E-001	-1.31614E-008	-8.99725E-008	7.68111E-008	-2.73000E-001	3.62206E-004	6	..........a	-327.68
	52	5.3	-2.20869E-001	-2.70895E-001	-2.45882E-001	-1.23180E-008	-8.80153E-008	7.56973E-008	-2.71000E-001	3.61206E-004	6	..........a	-327.68
	53	5.4	-2.18872E-001	-2.68891E-001	-2.43881E-001	-1.13422E-008	-8.63471E-008	7.50049E-008	-2.69000E-001	3.69873E-004	6	..........a	-327.68
	54	5.5	-2.16900E-001	-2.66812E-001	-2.41856E-001	-1.05988E-008	-8.42278E-008	7.36290E-008	-2.67000E-001	3.58873E-004	6	..........a	-327.68
	55	5.6	-2.14936E-001	-2.64926E-001	-2.39931E-001	-9.68698E-009	-8.26646E-008	7.29776E-008	-2.65000E-001	3.59706E-004	6	..........a	-327.68
	56	5.7	-2.12804E-001	-2.62884E-001	-2.37844E-001	-8.70252E-009	-8.08697E-008	7.21672E-008	-2.63000E-001	3.54373E-004	6	..........a	-327.68
	57	5.8	-2.10868E-001	-2.60836E-001	-2.35852E-001	-8.01077E-009	-7.89721E-008	7.09614E-008	-2.61000E-001	3.47873E-004	6	..........a	-327.68
	58	5.9	-2.08879E-001	-2.58847E-001	-2.33863E-001	-7.18666E-009	-7.73486E-008	7.01619E-008	-2.59000E-001	3.64373E-004	6	..........a	-327.68
	59	6	-2.06883E-001	-2.56896E-001	-2.31890E-001	-6.32855E-009	-7.57054E-008	6.93768E-008	-2.57000E-001	3.60873E-004	6	..........a	-327.68
	60	6.1	-2.04833E-001	-2.54910E-001	-2.29871E-001	-5.64347E-009	-7.41195E-008	6.84760E-008	-2.55000E-001	3.71373E-004	6	..........a	-327.68
	61	6.2	-2.02836E-001	-2.52888E-001	-2.27862E-001	-4.95205E-009	-7.24846E-008	6.75326E-008	-2.53000E-001	3.72206E-004	6	..........a	-327.68
	62	6.3	-2.00885E-001	-2.50860E-001	-2.25872E-001	-4.10060E-009	-7.08938E-008	6.67932E-008	-2.51000E-001	3.60539E-004	6	..........a	-327.68
	63	6.4	-1.98892E-001	-2.48890E-001	-2.23891E-001	-3.34518E-009	-6.93842E-008	6.60391E-008	-2.49000E-001	3.58706E-004	6	..........a	-327.68
	64	6.5	-1.96868E-001	-2.46875E-001	-2.21871E-001	-2.67776E-009	-6.78187E-008	6.51410E-008	-2.47000E-001	3.61373E-004	6	..........a	-327.68
	65	6.6	-1.94853E-001	-2.44874E-001	-2.19863E-001	-1.88132E-009	-6.62992E-008	6.44179E-008	-2.45000E-001	3.70373E-004	6	..........a	-327.68
	66	6.7	-1.92879E-001	-2.42816E-001	-2.17847E-001	-1.28258E-009	-6.50724E-008	6.37898E-008	-2.43000E-001	3.64706E-004	6	..........a	-327.68
	67	6.8	-1.90921E-001	-2.40925E-001	-2.15923E-001	-5.41152E-010	-6.35408E-008	6.29997E-008	-2.41000E-001	3.66873E-004	6	..........a	-327.68
	68	6.9	-1.88773E-001	-2.38906E-001	-2.13840E-001	1.56270E-010	-6.21607E-008	6.23169E-008	-2.39000E-001	3.55373E-004	6	..........a	-327.68
	69	7	-1.86827E-001	-2.36873E-001	-2.11850E-001	7.26009E-010	-6.08252E-008	6.15512E-008	-2.37000E-001	3.53373E-004	6	..........a	-327.68
	70	7.1	-1.84889E-001	-2.34846E-001	-2.09867E-001	1.36709E-009	-5.95677E-008	6.09348E-008	-2.35000E-001	3.55039E-004	6	..........a	-327.68
	71	7.2	-1.82892E-001	-2.32881E-001	-2.07886E-001	2.05851E-009	-5.82445E-008	6.03030E-008	-2.33000E-001	3.59539E-004	6	..........a	-327.68
	72	7.3	-1.80795E-001	-2.30853E-001	-2.05824E-001	2.57958E-009	-5.71434E-008	5.97229E-008	-2.31000E-001	3.69206E-004	6	..........a	-327.68
	73	7.4	-1.78803E-001	-2.28842E-001	-2.03823E-001	3.02930E-009	-5.60902E-008	5.91195E-008	-2.29000E-001	3.57206E-004	6	..........a	-327.68
	74	7.5	-1.76853E-001	-2.26844E-001	-2.01848E-001	3.56337E-009	-5.48881E-008	5.84514E-008	-2.27000E-001	3.57539E-004	6	..........a	-327.68
	75	7.6	-1.74894E-001	-2.24875E-001	-1.99885E-001	4.04610E-009	-5.37749E-008	5.78210E-008	-2.25000E-001	3.62206E-004	6	..........a	-327.68
	76	7.7	-1.72864E-001	-2.22880E-001	-1.97872E-001	4.53616E-009	-5.27225E-008	5.72586E-008	-2.23000E-001	3.44873E-004	6	..........a	-327.68
	77	7.8	-1.70846E-001	-2.20872E-001	-1.95859E-001	4.88887E-009	-5.11439E-008	5.60328E-008	-2.21000E-001	3.51206E-004	6	..........a	-327.68
	78	7.9	-1.68878E-001	-2.18873E-001	-1.93876E-001	6.14770E-009	-5.00618E-008	5.62095E-008	-2.19000E-001	3.50539E-004	6	..........a	-327.68
	79	8	-1.66883E-001	-2.16928E-001	-1.91906E-001	6.51008E-009	-5.00004E-008	5.65105E-008	-2.17000E-001	3.45539E-004	6	..........a	-327.68
	80	8.1	-1.64729E-001	-2.14904E-001	-1.89816E-001	6.17737E-009	-4.92153E-008	5.53927E-008	-2.15000E-001	3.43206E-004	6	..........a	-327.68
	81	8.2	-1.62802E-001	-2.12880E-001	-1.87841E-001	6.72177E-009	-4.79495E-008	5.46713E-008	-2.13000E-001	3.35039E-004	6	..........a	-327.68
	82	8.3	-1.60903E-001	-2.10868E-001	-1.85885E-001	7.78591E-009	-4.71784E-008	5.49643E-008	-2.11000E-001	3.42539E-004	6	..........a	-327.68
	83	8.4	-1.58898E-001	-2.08889E-001	-1.83894E-001	8.13028E-009	-4.62946E-008	5.44249E-008	-2.09000E-001	3.51206E-004	6	..........a	-327.68
	84	8.5	-1.56769E-001	-2.06873E-001	-1.81821E-001	8.56734E-009	-4.54745E-008	5.40419E-008	-2.07000E-001	3.44373E-004	6	..........a	-327.68
	85	8.6	-1.54779E-001	-2.04847E-001	-1.79813E-001	9.26210E-009	-4.45888E-008	5.38509E-008	-2.05000E-001	3.47706E-004	6	..........a	-327.68
	86	8.7	-1.52877E-001	-2.02845E-001	-1.77861E-001	9.58214E-009	-4.38700E-008	5.34521E-008	-2.03000E-001	3.63206E-004	6	..........a	-327.68
	87	8.8	-1.50883E-001	-2.00891E-001	-1.75887E-001	1.01242E-008	-4.30272E-008	5.31514E-008	-2.01000E-001	3.60373E-004	6	..........a	-327.68
	88	8.9	-1.48822E-001	-1.98889E-001	-1.73856E-001	1.05946E-008	-4.24345E-008	5.30291E-008	-1.99000E-001	3.49206E-004	6	..........a	-327.68
	89	9	-1.46825E-001	-1.96871E-001	-1.71848E-001	1.10150E-008	-4.18011E-008	5.28161E-008	-1.97000E-001	3.44039E-004	6	..........a	-327.68
	90	9.1	-1.44867E-001	-1.94864E-001	-1.69866E-001	1.12323E-008	-4.10216E-008	5.22540E-008	-1.95000E-001	3.48039E-004	6	..........a	-327.68
	91	9.2	-1.42885E-001	-1.92884E-001	-1.67884E-001	1.17577E-008	-4.04046E-008	5.21623E-008	-1.93000E-001	3.55873E-004	6	..........a	-327.68
	92	9.3	-1.40870E-001	-1.90904E-001	-1.65887E-001	1.23105E-008	-3.96388E-008	5.19493E-008	-1.91000E-001	3.50873E-004	6	..........a	-327.68
	93	9.4	-1.38778E-001	-1.88707E-001	-1.63742E-001	1.25672E-008	-3.90230E-008	5.15902E-008	-1.89000E-001	3.58873E-004	6	..........a	-327.68
	94	9.5	-1.36875E-001	-1.86813E-001	-1.61844E-001	1.30829E-008	-3.85310E-008	5.16139E-008	-1.87000E-001	3.40373E-004	6	..........a	-327.68
	95	9.6	-1.34889E-001	-1.84882E-001	-1.59885E-001	1.33343E-008	-3.79199E-008	5.12542E-008	-1.85000E-001	3.47539E-004	6	..........a	-327.68
	96	9.7	-1.32727E-001	-1.82879E-001	-1.57803E-001	1.38854E-008	-3.72435E-008	5.11288E-008	-1.83000E-001	3.42706E-004	6	..........a	-327.68
	97	9.8	-1.30793E-001	-1.80792E-001	-1.55793E-001	1.42181E-008	-3.68714E-008	5.10895E-008	-1.81000E-001	3.36873E-004	6	..........a	-327.68
	98	9.9	-1.28818E-001	-1.78819E-001	-1.53819E-001	1.43341E-008	-3.61080E-008	5.04421E-008	-1.79000E-001	3.31873E-004	6	..........a	-327.68
	99	10	-1.26906E-001	-1.76851E-001	-1.51878E-001	1.48128E-008	-3.56586E-008	5.04714E-008	-1.77000E-001	3.41539E-004	6	..........a	-327.68
	100	10.1	-1.24818E-001	-1.74885E-001	-1.49851E-001	1.52579E-008	-3.49655E-008	5.02234E-008	-1.75000E-001	3.46873E-004	6	..........a	-327.68